frame_idx,timestamp_sec,acc_x,acc_y,acc_z
0,0.0,0.3351882398128509,9.950302124023438,0.2298433631658554
1,0.03336666666666667,-0.30964989697212597,9.834103611777808,-0.1388632926281938
2,0.06673333333333334,-0.36640292112473105,9.805136837883452,0.02775947138148302
3,0.10010000000000001,-0.4425607730865916,9.882757628060844,0.09117856042829982
4,0.13346666666666668,-0.4945069515029628,9.831893559626744,0.10647781626624711
5,0.16683333333333333,-0.41576497873741103,9.886753237301022,-0.11905758613323567
6,0.20020000000000002,-0.4807548973495951,9.910079044338298,0.33601009546802574
7,0.23356666666666667,-0.5587509217109555,9.82330296504194,-0.00912172424948813
8,0.26693333333333336,-0.3509531721740036,9.857333568861767,0.3250221625772326
9,0.3003,-0.3266071338375951,9.868822406171578,0.35721580308430145
10,0.33366666666666667,-0.3109501295370898,9.87226951317611,0.005442792024503207
11,0.3670333333333333,-0.13567199360431886,9.914229633412855,-0.0841152121414891
12,0.40040000000000003,-0.12730713876053576,9.878028915223716,0.2027736508793927
13,0.4337666666666667,-0.37937333958411684,9.890021399198101,-0.08078937618044575
14,0.46713333333333334,-0.23900992624127437,9.91324920120339,-0.12037254677405629
15,0.5005000000000001,-0.41965469925937054,9.837487870499748,0.24976434545251425
16,0.5338666666666667,-0.4363961086303701,9.866972558307463,0.06890729730825218
17,0.5672333333333334,-0.5262701061049472,9.9010552689854,-0.24861614296392145
18,0.6006,-0.5926456183536366,9.894278105560574,0.11619825980553862
19,0.6339666666666667,-0.6129156351089478,9.844123022595786,-0.08006954764094873
20,0.6673333333333333,-0.5963631301431971,9.807477724277621,0.1561845862070954
21,0.7007,-0.6440978378204512,9.924023504390764,0.1628057211637497
22,0.7340666666666666,-0.6060294160006503,9.88595512000303,0.23456467268170222
23,0.7674333333333333,-0.6944059038024241,9.928402796362507,-0.13345961460964348
24,0.8008000000000001,-0.5736525040368837,9.869856815344162,0.21164773880563745
25,0.8341666666666667,-0.5051772389450871,9.795211133927856,0.06770311810989817
26,0.8675333333333334,-0.7022994808942762,9.819419516383313,0.021706438977920822
27,0.9009,-0.5431972544392956,9.891117323036148,0.1680535339642726
28,0.9342666666666667,-0.5253982714251161,9.916071270221966,0.11376853766690423
29,0.9676333333333333,-0.6203365879949351,9.905677201025217,-0.21204400696930525
30,1.0010000000000001,-0.45216207345486975,9.867530942378187,0.04241115366279606
31,1.0343666666666667,-0.41710720091162135,9.897801773664709,-0.05581219472986709
32,1.0677333333333334,-0.4849412639692914,9.911994934082031,-0.17685425598359666
33,1.1011,-0.3690977236472527,9.873864936754305,0.1287190311116292
34,1.1344666666666667,-0.33911298710011556,9.887189287074102,0.11175447612023724
35,1.1678333333333333,-0.3474044727171912,9.803335195253352,-0.004726712381704724
36,1.2012,-0.26181525107619363,9.914647007316868,-0.033887299980453756
37,1.2345666666666666,-0.11772149837255774,9.918010942225413,-0.02862989650583897
38,1.2679333333333334,-0.21748481704452988,9.87507860992596,-0.07255861531869906
39,1.3013000000000001,-0.09548486275433835,9.911533392485323,0.1916409965588223
40,1.3346666666666667,-0.016698156351382786,9.91580062734199,0.3542219569853313
41,1.3680333333333334,-0.08437349407179039,9.868444903741043,-0.25868314557994193
42,1.4014,0.01491118317997267,9.819510543517755,0.04364159929169617
43,1.4347666666666667,0.12375381350156525,9.871479713308226,0.11338034936163313
44,1.4681333333333333,0.09100428830324528,9.837443278841107,-0.21388136048848205
45,1.5015,0.28428884323108555,9.770470874198978,0.21086624533536943
46,1.5348666666666666,0.2736671163392621,9.803253580234117,0.36519530656080446
47,1.5682333333333334,0.43529465682908314,9.842855266920854,0.02459334276843779
48,1.6016000000000001,0.4987577420359964,9.87330411840672,0.16586780231313383
49,1.6349666666666667,0.5426382981000035,9.796263446313292,0.09481593524504682
50,1.6683333333333334,0.5016590782824519,9.824857905433962,0.1385679878637959
51,1.7017,0.5679027292022256,9.777627381099544,0.21455785182710757
52,1.7350666666666668,0.7069575364650535,9.873214739229688,0.376474775082716
53,1.7684333333333333,0.6311617431602068,9.809903576973264,0.017879208261511376
54,1.8018,0.7844768687696221,9.805282587233812,0.11765305946658405
55,1.8351666666666666,0.8454605887668183,9.92341181995837,0.3556968066014501
56,1.8685333333333334,0.8105757373316069,9.76489014257314,0.2047986858287399
57,1.9019,0.98987264777124,9.862380168153255,0.20678335957199045
58,1.9352666666666667,0.9904382038486735,9.826540219922638,0.33946083123015397
59,1.9686333333333335,1.0409867312285848,9.806441649725874,0.21696435692294438
60,2.0020000000000002,1.049765255685414,9.831697013612354,0.13849421803817324
61,2.0353666666666665,1.0825485625456412,9.822808511120416,0.3287544430864532
62,2.0687333333333333,1.0638998982351187,9.873687744140623,0.18444148216371292
63,2.1021,1.147722362818106,9.823773837756557,0.2742030303616064
64,2.135466666666667,1.131365662406214,9.801721247579883,0.5230979476536016
65,2.168833333333333,1.1123291121210581,9.790925417533574,0.18450343352525334
66,2.2022,1.0911666056507037,9.73239311159763,0.07189953179085457
67,2.2355666666666667,1.1656049130619361,9.836763293466166,0.3654037745777659
68,2.2689333333333335,1.1579182153789351,9.891541348204154,-0.08772968436956737
69,2.3023000000000002,1.2236947662625939,9.881496611767727,0.2915022660818997
70,2.3356666666666666,1.2656758536778505,9.792817380555352,0.3367255799813068
71,2.3690333333333333,1.2488580065653858,9.866693037335226,0.07381409800247522
72,2.4024,1.2292778173164707,9.790559690903718,0.0137860891521277
73,2.435766666666667,1.2121313363027542,9.804974594660752,0.34042842270233037
74,2.469133333333333,1.263499986479179,9.891883628591144,0.10151433334224313
75,2.5025,1.1628453873355384,9.831328820296894,0.15101875167157927
76,2.5358666666666667,1.1493647463072114,9.849819713105964,0.25356349841523584
77,2.5692333333333335,1.09637159532665,9.877558396105547,0.021641828445785424
78,2.6026000000000002,1.1070788958766806,9.854151086038266,0.05171489307169108
79,2.6359666666666666,1.1049761408669478,9.906061533170694,0.5143002777510773
80,2.6693333333333333,0.9786583945320204,9.788408615448382,0.23166689270782476
81,2.7027,0.8631754629551093,9.770793539042995,0.1964372693194537
82,2.736066666666667,0.9140376327816938,9.881485942851445,0.253010051795635
83,2.769433333333333,0.8988497709915507,9.857260513149432,0.1546542353552211
84,2.8028,0.7768149825546531,9.816226959228516,0.04240900272939502
85,2.8361666666666667,0.9169787267870259,9.828729942165394,0.4062150006968852
86,2.8695333333333335,0.7591684986032358,9.807170317496634,0.26138856573154173
87,2.9029000000000003,0.7757213711738586,9.810557548892946,-0.011990339276392786
88,2.9362666666666666,0.7054426599419485,9.80070825920791,0.08957861798197758
89,2.9696333333333333,0.6928021402578858,9.874738531687942,0.1165444187914938
90,3.003,0.4736828625197834,9.856744063600381,0.06924605844840714
91,3.036366666666667,0.6430282476444475,9.844611807654031,0.2752520484164538
92,3.069733333333333,0.5594334609386474,10.002164786151893,0.029663441676282376
93,3.1031,0.379371465567736,9.867811747272313,0.2710050541771334
94,3.1364666666666667,0.39020354095715293,9.8569796887372,-0.1297814992710461
95,3.1698333333333335,0.361400280583243,9.851033835485055,0.265389586183159
96,3.2032000000000003,0.21183891224535076,9.823888964685624,0.06741833738462644
97,3.2365666666666666,0.3047528795096522,9.917927153104065,0.16703299078407274
98,3.2699333333333334,0.13331867634612743,9.902796447434824,0.02646055315947517
99,3.3033,0.10109223199496775,9.887708239079501,0.09615018895195254
100,3.336666666666667,0.08183669759187587,9.808971381645165,0.1601905599228932
101,3.370033333333333,-0.0766144543886184,9.796056806099676,0.18837951719074225
102,3.4034,-0.1588289560805542,9.91715310828065,-0.09076340536280092
103,3.4367666666666667,-0.08723701912232684,9.873426305083257,0.2012550802767643
104,3.4701333333333335,-0.14426687410825667,9.956497649323499,0.08280998391083501
105,3.5035000000000003,-0.3020527722611942,9.819099932715721,0.07718800469920883
106,3.5368666666666666,-0.22670113615102974,9.857676375192325,0.2752698578478062
107,3.5702333333333334,-0.24705245851617175,9.925314990026482,0.0652389007686519
108,3.6036,-0.42521230476426886,9.855081196196242,-0.06129364993082498
109,3.636966666666667,-0.2585737705230713,9.848851574476189,0.1847002315325334
110,3.6703333333333332,-0.3146158305595283,9.87274188880157,-0.027784564136855407
111,3.7037,-0.3849141036951038,9.870667279471494,-0.03440376462443551
112,3.7370666666666668,-0.2481934554550182,9.883264541625977,-0.0819604716748745
113,3.7704333333333335,-0.47204690912481767,9.955868856174986,0.14671884739884883
114,3.8038,-0.39338539554350055,9.911700409779781,0.024749580552727357
115,3.8371666666666666,-0.3843162832122943,9.911641025804505,0.22947881098406686
116,3.8705333333333334,-0.49766302827777,9.950136665124603,0.05415165953230433
117,3.9039,-0.5351146208757196,9.85897751271433,-0.1473324903191472
118,3.937266666666667,-0.3386261308012003,9.89048385130051,0.10986317769017673
119,3.9706333333333332,-0.5103788864897415,9.869064912235611,-0.0403735568584869
120,4.0040000000000004,-0.5267240790121641,9.90241802055173,-0.1915355047787702
121,4.037366666666666,-0.3199584223544314,9.827230594122735,0.21259729249132095
122,4.070733333333333,-0.4445913367158609,9.934705051026516,-0.04140675734353188
123,4.1041,-0.387541794305184,9.804415400396731,-0.0718286823282864
124,4.137466666666667,-0.3167224224443647,9.843925663732138,0.045622563959919676
125,4.170833333333333,-0.3782827216219947,9.867302451388303,0.17398010012969095
126,4.2042,-0.3039042631222253,9.887223526353276,-0.046098508114525816
127,4.237566666666667,-0.2394441054560352,9.875038763777242,0.21085726631702287
128,4.270933333333334,-0.25078469620109334,9.874283651243607,0.017877229779315496
129,4.3043000000000005,-0.26294073647349964,9.912837813256198,-0.1710819546292191
130,4.337666666666666,-0.1053448766469955,9.801031064668582,0.2574235791896365
131,4.371033333333333,-0.1441798021171846,9.909772611038122,0.03878665302866595
132,4.4044,-0.08453048374825774,9.949791116643107,0.021197645056555692
133,4.437766666666667,0.03109272175185411,9.893958688015747,0.01005615250820907
134,4.471133333333333,-0.009668044889076625,9.939539232515045,0.2196278841990835
135,4.5045,0.03112484691940318,9.895235893972492,-0.011971753192839524
136,4.537866666666667,0.09066041346330092,9.891564669257964,0.019791467053381057
137,4.571233333333334,0.0033785645761170097,9.84833591297511,0.13236077088022216
138,4.6046000000000005,0.1587012315277026,9.854807781535579,-0.14693502820240123
139,4.637966666666666,0.2177991932408122,9.881725596524275,0.3114430340804562
140,4.671333333333333,0.32378730121995364,9.937761100697498,0.2508211141452655
141,4.7047,0.203717436949498,9.88414619290755,0.1746796592808327
142,4.738066666666667,0.37966680877519665,9.945667384629678,0.1220149727111484
143,4.771433333333333,0.2744954035226128,9.827572825212078,0.1470711002555273
144,4.8048,0.4486062869581098,9.788180039584601,0.00533109303931939
145,4.838166666666667,0.5047774650417898,9.849080710352688,0.26588868046601344
146,4.871533333333334,0.5542961652630806,9.929824386996787,0.4330847954438303
147,4.9049000000000005,0.5655849938653795,9.84156933301962,-0.20840847052450123
148,4.938266666666666,0.6167006084506524,9.912724697184201,0.20070178354240176
149,4.971633333333333,0.6732105693075746,9.790599291922076,0.34355173059507754
150,5.005,0.6735689179220404,9.8364446995621,-0.025536957984704695
151,5.038366666666667,0.6968715452085548,9.842403260250343,0.2841084487634782
152,5.071733333333333,0.8236053586006165,9.80881148853648,0.38184243943344853
153,5.1051,0.8161212096402695,9.829989053763876,0.10381891126237934
154,5.138466666666667,0.9149044184888395,9.828701399883197,0.23426354972798588
155,5.171833333333334,0.9046890975593455,9.836657189703415,0.1091757977683246
156,5.2052000000000005,0.8235394180918955,9.853741578782879,-0.22244583917434066
157,5.238566666666666,0.9275547984732329,9.815994379283778,0.18424749849493524
158,5.271933333333333,0.9930237393757728,9.941044421429094,0.25757035392750016
159,5.3053,1.0267400106742752,9.815268898863888,0.04043455909565158
160,5.338666666666667,1.0581140378946652,9.81328036871692,0.15985608993103595
161,5.372033333333333,1.1877571314010777,9.849585903618085,0.25150102797933344
162,5.4054,1.1011854379445727,9.86352156363742,0.07411025288875567
163,5.438766666666667,1.0230976536484122,9.83724680027143,0.24064801541500164
164,5.472133333333334,1.1202733767301964,9.815161949530804,0.318697141935493
165,5.5055000000000005,1.071918161681172,9.830763816941987,0.084820383485674
166,5.538866666666666,1.11090891389181,9.804095963521481,0.31794739187976084
167,5.572233333333333,1.0655129142850164,9.822571466938086,0.22001414360603855
168,5.6056,0.9899693554947406,9.810481216444254,0.18196101255216113
169,5.638966666666667,1.100712391797918,9.909009464579745,0.3645562072891415
170,5.6723333333333334,1.0997365601068687,9.78270844006361,0.41499675868928304
171,5.7057,1.0840590698803478,9.860528576076515,0.0897022029667281
172,5.739066666666667,0.9600297475659614,9.80723742681761,0.14656263863532498
173,5.772433333333334,1.1469118337284308,9.827649765831634,0.39114981561905904
174,5.8058000000000005,0.9946194886417639,9.843862630239958,0.12258473872153271
175,5.839166666666666,0.9253894622119028,9.852078927558312,0.21498566713406855
176,5.872533333333333,0.9532124269432994,9.931148529052734,0.10372739769067975
177,5.9059,0.8650334665036964,9.92373536140821,0.036462668314793695
178,5.939266666666667,0.874348850825597,9.823147246621467,0.362920131979359
179,5.9726333333333335,0.8331822156906128,9.866944071881427,0.37642164605736506
180,6.006,0.8353104516173987,9.842829115757784,-0.084771378355637
181,6.039366666666667,0.7632949685060393,9.884026533734568,0.10978610755158907
182,6.072733333333334,0.8184973274827584,9.873687744140623,0.14748465039297312
183,6.1061000000000005,0.6912319213036694,9.850171206695679,0.006843435236760065
184,6.139466666666666,0.6892459040963603,9.853044240696043,0.1757155027238544
185,6.172833333333333,0.6129156351089478,9.802844021662004,0.280121153833488
186,6.2062,0.4103134935363015,9.91731509869954,-0.03043182081414964
187,6.239566666666667,0.556313832540711,9.859249407216279,0.18311090808579325
188,6.2729333333333335,0.37570650033883907,9.850654583157525,0.2277814654422382
189,6.3063,0.31606910350209216,9.867445005080684,0.056679050296478906
190,6.339666666666667,0.3604982646222999,9.903900460005689,0.16063900174008539
191,6.373033333333334,0.33398778136291846,9.891934300802754,0.26785717302059425
192,6.4064000000000005,0.25445942240800407,9.815730373484069,-0.23686566500374204
193,6.439766666666666,0.29235843531752326,9.82524516737713,0.13064297771810204
194,6.473133333333333,0.25415032111158153,9.855537473622736,0.301624187361455
195,6.5065,0.2122860095536661,9.897629973286639,-0.03671127429011996
196,6.539866666666667,0.07518944778848391,9.860035051716148,0.10519552846000721
197,6.5732333333333335,0.07029408633119444,9.872423671973992,0.12581281743250033
198,6.6066,-0.056892736343665894,9.919727203737576,0.031002843664365135
199,6.639966666666667,-0.009996751465624211,9.821911582047854,0.20248544122427142
200,6.673333333333334,-0.004651428134334501,9.866847582702931,0.2616756898152762
201,6.7067000000000005,-0.07355056945067012,9.90946679851664,0.2298433631658554
202,6.740066666666666,-0.1668328570437602,9.84299318282587,0.10755308574030253
203,6.773433333333333,-0.0837676416266162,9.894803769079102,0.2979210612936994
204,6.8068,-0.08308727378812564,9.848656102338502,0.01690924160791683
205,6.840166666666667,-0.14989162944237053,9.914462158341811,0.023646797309730405
206,6.8735333333333335,-0.0607038542364256,9.914351075106303,0.25680004443943655
207,6.9069,-0.08824845768812623,9.974918127478784,-0.10765042980358037
208,6.940266666666667,-0.2910860235495662,9.800855173285301,0.12756766547901344
209,6.973633333333334,-0.1730792491761906,9.867854244967962,0.33485357057956777
210,7.007000000000001,-0.14099121151329036,9.893374258455841,-0.0994929497027058
211,7.040366666666666,-0.29815791517228285,9.855811057187418,0.09257575851423
212,7.073733333333333,-0.19843316467970656,9.938468628793611,0.35242361748049433
213,7.1071,-0.2868245049662861,9.893799418469767,0.1345550013423122
214,7.140466666666667,-0.3961605209585054,9.860280897049876,0.1462043506218799
215,7.1738333333333335,-0.20231101871510837,9.84090024388532,0.40395296581398354
216,7.2072,-0.18742185688240345,9.936823525830988,-0.11421086285143908
217,7.240566666666667,-0.33787574370451373,9.88600451714487,0.14101706307067055
218,7.273933333333334,-0.12508900571864962,9.885130265001685,0.38807893444580044
219,7.307300000000001,-0.2668382613687876,9.900183942859389,0.19231708190350422
220,7.3406666666666665,-0.278466033962153,9.763921347225448,-0.006263125843980644
221,7.374033333333333,-0.13610151798753806,9.8524225351028,0.2063174544038287
222,7.4074,-0.10172678990717404,9.883193117813335,0.07796333028420391
223,7.440766666666667,-0.19019138823150045,9.869674874284348,-0.00020630673367175167
224,7.4741333333333335,-0.1471179341448623,9.936621093424918,0.2977932433211806
225,7.5075,-0.13186522639223885,9.973875848546058,0.01565432276822948
226,7.540866666666667,-0.08262039643163163,9.946684546929605,-0.008300872925200542
227,7.574233333333334,0.0006263670739863197,9.896242393761398,0.19690967742264093
228,7.6076,0.032560903217405006,9.867941425751887,-0.035623608327793654
229,7.6409666666666665,-0.0651765033682992,9.809123864288198,0.06274972867585205
230,7.674333333333333,0.09151138215650356,9.907738546629172,0.17451027246852896
231,7.7077,0.03778933119127419,9.8582049460065,0.006823706493816684
232,7.741066666666667,0.05123569269610389,9.831602865126035,-0.07459303191451654
233,7.7744333333333335,0.1780751624860584,9.86255418909566,0.26374749960226396
234,7.8078,0.0983675407989559,9.88292208530951,0.06854365619966245
235,7.841166666666667,0.18245026419166474,9.86005894578431,0.20749796222289504
236,7.874533333333334,0.3185890896320475,9.84240289639347,0.4080605081357768
237,7.9079,0.2758851418442245,9.797073364257812,0.06180621163119751
238,7.9412666666666665,0.4328006536453123,9.84507572130515,0.23187486738364926
239,7.974633333333333,0.4170330806866187,9.848014546883048,0.4379301707799005
240,8.008000000000001,0.4057731744911241,9.847794963054302,0.07696986252457677
241,8.041366666666667,0.3377402857699948,9.78010449836424,0.1939657514888826
242,8.074733333333333,0.6046645552837431,9.775268333966816,0.18809330829791698
243,8.1081,0.6525712120499549,9.918805833519542,-0.016456943381591177
244,8.141466666666666,0.5162625498272123,9.796630859096753,0.09954673467186365
245,8.174833333333334,0.5846346061760376,9.863961145672342,0.2444065658257733
246,8.2082,0.5778007312738348,9.802819405945762,0.2624045402282621
247,8.241566666666667,0.6835383722149286,9.831231030994733,0.09387625569262617
248,8.274933333333333,0.7469909191131592,9.787368996779104,0.3866047197180986
249,8.308300000000001,0.7469909191131592,9.878054959023327,-0.021836093785973065
250,8.341666666666667,0.6773741118432534,9.868407584475587,0.18416708457108072
251,8.375033333333333,0.8586668840320557,9.953387473279566,0.458965026375068
252,8.4084,0.8009053922211257,9.904403796334359,0.23012927059815183
253,8.441766666666666,0.8013894553444055,9.792792638807281,0.34862338061985554
254,8.475133333333334,0.7731675122371575,9.871133922953558,0.26655457070539457
255,8.5085,0.8581148895619778,9.98844417686072,0.042104940223181925
256,8.541866666666667,0.8717729627290933,9.867350468639513,0.10732963336747203
257,8.575233333333333,0.8608304311653789,9.921806418874214,0.37674205010509004
258,8.608600000000001,0.9106859513735969,9.847419779605707,0.10555033209727405
259,8.641966666666667,0.911743762007302,9.892365129128903,0.03325958472323598
260,8.675333333333333,0.9398038873944289,9.900502377673153,0.39775643873462807
261,8.7087,0.9367649499221495,9.830094261063294,-0.03179566162659403
262,8.742066666666666,0.9537019316606917,9.917912960424806,0.21942634245870674
263,8.775433333333334,1.0171323404810897,9.827973846225511,0.4564409179350011
264,8.8088,0.992088607523853,9.857612138943562,0.16609089632146967
265,8.842166666666667,0.9306794433072565,9.838173765742287,-0.007980247366452697
266,8.875533333333333,0.9614628096419116,9.936058359653172,0.261271560998103
267,8.908900000000001,1.0715765388912881,9.848138142676325,0.15644413258130968
268,8.942266666666667,0.9321670599032609,9.746267094189013,0.09986846369079394
269,8.975633333333333,0.9576807022094728,9.834950685272863,0.32126485624478573
270,9.009,0.9080864877003089,9.889421004155805,0.04378089289752624
271,9.042366666666666,0.9333133360822295,9.840594265751115,-0.06674977596101056
272,9.075733333333334,0.913233463187939,9.795304743091288,0.2977151215902932
273,9.1091,0.8708264744393932,9.786502169983521,0.06409015903564558
274,9.142466666666667,0.8513426018339475,9.833394098868622,0.010261598891294854
275,9.175833333333333,0.850739431004544,9.780314000273155,0.3870626122833972
276,9.209200000000001,0.8133445605146625,9.826487768383961,0.1332548562105308
277,9.242566666666667,0.6921097225624212,9.838094229080625,0.2545821958354081
278,9.275933333333333,0.7341241045728646,9.906690090683702,0.12715091593646247
279,9.3093,0.6949565299408281,9.85332827187232,0.10896251229240901
280,9.342666666666666,0.6260515694896707,9.833537894478681,0.18220165662417526
281,9.376033333333334,0.7037347691012577,9.837662381642586,0.352124242372066
282,9.4094,0.6298804947592638,9.864452680803852,0.03824217748337447
283,9.442766666666667,0.4975416827696155,9.851581310229896,0.09217666064424757
284,9.476133333333333,0.5448461128922778,9.910226822966125,0.2706549394461388
285,9.509500000000001,0.47671228302898966,9.8747517765229,-0.015962019494913826
286,9.542866666666667,0.5268210949858624,9.882675059548706,0.38203838660956374
287,9.576233333333333,0.4087766725775591,9.949408006827662,0.37270474181050584
288,9.6096,0.33284689806255346,9.8895785799711,0.03284662987498553
289,9.642966666666666,0.3225670549665874,9.844513702071099,0.5767004636107124
290,9.676333333333334,0.25538132850221346,9.864111089975282,0.20749914959984114
291,9.7097,0.28443122970520407,9.892362512304473,0.28538863165615697
292,9.743066666666667,0.32241920358084275,9.94327913695269,0.45585619419614454
293,9.776433333333333,0.21812888022079235,9.83544230638796,-0.02519610959771036
294,9.809800000000001,0.17961798263540107,9.880284456774477,0.3977546445299186
295,9.843166666666667,0.05868879377272018,9.876634212408685,0.050585223066230214
296,9.876533333333333,0.06215652130539312,9.883264541625977,0.18469075530688475
297,9.9099,0.07611721747579014,9.969111478384107,0.342737840630705
298,9.943266666666666,0.06097169057036282,9.931148529052734,-0.11045509678331511
299,9.976633333333334,0.056681073101623,9.891628052569562,0.2268537724378754
300,10.01,-0.12662648633632512,9.924763731293814,0.2915605981925263
301,10.043366666666667,-0.11779535838666846,9.869218996108538,-0.04038654766892885
302,10.076733333333333,-0.0030088432275385754,9.871955024522544,0.28174310943034864
303,10.110100000000001,-0.07230574457013254,9.929491334555493,0.05123335639191312
304,10.143466666666667,-0.10757938122597778,9.85480430588595,0.2127525587081168
305,10.176833333333333,-0.1127339430416964,9.842120268705964,0.0020112504195612113
306,10.2102,-0.15507033989251418,9.843115927045277,0.034624374334230296
307,10.243566666666666,-0.13338371231523014,9.754030477312616,0.3364660000996387
308,10.276933333333334,-0.24005814999450698,9.937362454982877,-0.034432535775275996
309,10.3103,-0.14392019898725147,9.79921818169277,0.257501360971277
310,10.343666666666667,-0.2252459119574286,9.851725003464171,0.0938548716344706
311,10.377033333333333,-0.15552511497858035,9.796361309879106,-0.015041328021815459
312,10.410400000000001,-0.15567262288308772,9.843174079195437,0.24893064899025352
313,10.443766666666667,-0.1525585151788587,9.900853886489744,0.026048846219533225
314,10.477133333333333,-0.07264693546488968,9.834650879819424,0.17812852764502726
315,10.5105,-0.15251963074146715,9.853470233150903,0.10303972299625598
316,10.543866666666666,-0.10406812588028594,9.837934346795535,-0.06448476034402317
317,10.577233333333334,0.00020420214140079267,9.889380252996975,0.2514474061851098
318,10.6106,0.035507790996433836,9.909932229165468,-0.08353864833096541
319,10.643966666666667,-0.13375637115565542,9.849198372837769,-0.04551360290352924
320,10.677333333333333,-0.06286317569431632,9.841765175782399,0.141933092908992
321,10.710700000000001,-0.17301848318215565,9.775942685012737,-0.06849847865957293
322,10.744066666666667,-0.04660735934608365,9.783665239932873,0.4462790222741604
323,10.777433333333333,0.05870167931785865,9.913247013641124,0.021217937760445782
324,10.8108,0.021290039539488635,9.887537389355394,0.061807911313408355
325,10.844166666666666,0.18065770300023612,9.930320221115782,0.580931172420607
326,10.877533333333334,0.0472467929857843,9.859642771822333,0.08874557412816483
327,10.9109,0.11499535911270785,9.873908776472025,0.3152978399139832
328,10.944266666666667,0.15219769801288424,9.83606802861533,0.2622330816121511
329,10.977633333333333,0.1400504331735417,9.914459668810245,0.07671407923078438
330,11.011000000000001,0.3026259404230578,9.900502029645805,0.38689974198336596
331,11.044366666666667,0.23638828274509216,9.925951004302522,0.14716512400509818
332,11.077733333333333,0.23584471560039552,9.921571731567385,0.2555053520733248
333,11.1111,0.23135094025779418,9.873824796477516,0.18278164590996634
334,11.144466666666666,0.27561572666719925,9.957374163818805,-0.11899758524454285
335,11.177833333333334,0.36751005767905476,9.933941150164102,0.19273198367734115
336,11.2112,0.36664428058934284,9.890115713486425,0.25363864513849527
337,11.244566666666667,0.3455999993307265,9.903461838325352,0.0191536135971546
338,11.277933333333333,0.5078908302934038,9.934021458178217,0.3339134467021188
339,11.311300000000001,0.3800868620698595,9.845689728981899,0.11469810917587298
340,11.344666666666667,0.5019846277686419,9.81928591625415,0.4124663825223147
341,11.378033333333333,0.5671203582636447,9.884581954136202,0.08782950349520877
342,11.4114,0.6205769933387587,9.806797463237036,0.15175534511787991
343,11.444766666666666,0.6868174111470834,9.806171456779095,0.46096596319251454
344,11.478133333333334,0.5996906121856559,9.84404529915679,0.1898033896246626
345,11.5115,0.740942313378791,9.772879422573254,0.26613406947598733
346,11.544866666666667,0.7049113414342366,9.784361974129194,0.2539906045770828
347,11.578233333333333,0.6797812609717228,9.83589660261721,0.1712363549641958
348,11.611600000000001,0.8379341985521753,9.82729330963498,0.3126266349333713
349,11.644966666666667,0.7514490942597473,9.870944254369661,0.0592263567077767
350,11.678333333333333,0.7958573000653447,9.78086649890342,0.2929525218385367
351,11.7117,0.7283167099892183,9.790369759455585,0.31795007980896717
352,11.745066666666666,0.8117555904423219,9.791148468416727,-0.006946710461370409
353,11.778433333333334,0.8906430602073669,9.833531318060302,0.44324617754568435
354,11.8118,0.9170476099398908,9.770942241116517,-0.0071125289175129475
355,11.845166666666668,0.8261840310606658,9.809658609825862,0.017864277450719876
356,11.878533333333333,0.9028589115993932,9.857343238210586,0.14297205614789296
357,11.911900000000001,0.8089660237902263,9.84495735168457,0.000956465713760013
358,11.945266666666667,0.8745833950868928,9.743541302059981,0.38110790577183457
359,11.978633333333333,0.9803006418306064,9.864977524356027,0.17017163903616067
360,12.012,0.8917077025365666,9.877943807369737,0.019863394972152892
361,12.045366666666666,1.0090644048441688,9.864805858910527,0.6378937443239532
362,12.078733333333334,0.8658412447651502,9.815737514767198,0.1865757716070354
363,12.1121,0.8652051605722879,9.90307664626211,0.4515405714643945
364,12.145466666666668,0.9392719348951317,9.919363754011298,0.4458273961524374
365,12.178833333333333,0.9187454711890168,9.810583343117116,0.14461888570975792
366,12.212200000000001,0.9576807022094728,9.892841339111328,0.4782725417822846
367,12.245566666666667,0.8529173740896622,9.82657917461833,0.005350002529105748
368,12.278933333333333,0.8100373378564042,9.812023155355512,0.46266284864512974
369,12.3123,0.8688561809723858,9.829873769807772,0.39528231327342
370,12.345666666666666,0.8338466832565136,9.85985485597998,-0.0013313647739461865
371,12.379033333333334,0.8264905065408745,9.86988118766944,0.5107761366007816
372,12.4124,0.7948013724073711,9.887389915034452,0.166268603989187
373,12.445766666666668,0.6239780305807984,9.889121097502183,-0.07252594911743092
374,12.479133333333333,0.7349026603598959,9.887818369951846,0.45896512657596666
375,12.512500000000001,0.6540969384433909,9.866026397483163,0.09672762188064041
376,12.545866666666667,0.6145113344175293,9.827772221398497,0.3708351116550117
377,12.579233333333333,0.7063764481311654,9.928631860861223,0.2461998370011583
378,12.6126,0.6357630616619997,9.853097363480114,0.22785797066388722
379,12.645966666666666,0.7405222148620115,9.828404254759809,0.4633024456419887
380,12.679333333333334,0.5682241565516488,9.824740386855536,0.11704963170842304
381,12.7127,0.5871768057769144,9.860758134757694,0.20374329681798542
382,12.746066666666668,0.49278798655070166,9.834030256783036,0.22476212145974425
383,12.779433333333333,0.48634182182070473,9.801120575527573,0.17948409284407232
384,12.812800000000001,0.4959360645334112,9.814381761633443,0.33362479424139196
385,12.846166666666667,0.4608093724609542,9.84418879312266,0.16753780903641152
386,12.879533333333333,0.3764915425885057,9.77251615161283,0.31504512556338976
387,12.9129,0.3765610656883503,9.816226959228516,0.11665083027667991
388,12.946266666666666,0.333485146053899,9.786054012474505,0.05268201946036899
389,12.979633333333334,0.36574836223331697,9.820990587121806,0.35481963407058953
390,13.013,0.2617664422935516,9.822611539144598,-0.02553754822252295
391,13.046366666666668,0.25787147489166307,9.826365592869315,0.03620033953516191
392,13.079733333333333,0.2644577779993697,9.852162509114978,0.19934056879645834
393,13.113100000000001,0.05922897315589805,9.84186337115793,-0.2237285965871419
394,13.146466666666667,0.10288935169089661,9.730134165519017,0.2718338808700628
395,13.179833333333333,0.10597259181558469,9.895691928116868,0.12290333658688953
396,13.2132,0.04145390669642855,9.86082750327804,0.2665083369000441
397,13.246566666666666,0.20975364983501865,9.886908039770834,0.4045917498110821
398,13.279933333333334,-0.023834700134083106,9.875603731092895,0.030861035278503868
399,13.3133,0.05056410512915471,9.985735445422218,0.5098659728094731
400,13.346666666666668,0.03990481686999656,9.873687744140623,0.30007504390524664
401,13.380033333333333,-0.06596088181379446,9.882439734292191,0.1293094729968245
402,13.413400000000001,0.012945081811699895,9.86721520952917,0.2832077476527858
403,13.446766666666667,-0.09431381710024092,9.916901563756525,-0.10463549184714487
404,13.480133333333333,0.017465641081225114,9.891153368884392,0.003282102685984195
405,13.5135,-0.018515263291891095,9.850064925052177,0.07086930598746959
406,13.546866666666666,-0.21076205020091032,9.905185351849525,0.05596877616856416
407,13.580233333333334,-0.07024208295893156,9.902902702699077,0.3509133902825713
408,13.6136,-0.06394352538134832,9.915236273224844,0.07587835642180894
409,13.646966666666668,-0.08038138967005967,9.94223209924397,-0.12481741998351778
410,13.680333333333333,-0.045329529835030816,9.893904854027959,0.45202837767829696
411,13.713700000000001,-0.131712907174109,9.96460369761973,0.1725097677863526
412,13.747066666666667,-0.07753637738106922,9.853800339111896,0.5271760171141886
413,13.780433333333333,-0.10050464078864123,9.977258599596448,0.2738869708320262
414,13.8138,-0.03908814082107205,9.90241813659668,0.10981330076389435
415,13.847166666666666,0.03397469233492317,9.912906670275195,0.3460743339592116
416,13.880533333333334,-0.14301583976620258,9.87900870930627,-0.10768722553678481
417,13.9139,-0.015254470872675834,9.901392058421091,0.36843346098629076
418,13.947266666666668,-0.07263620759592793,9.81210160057357,0.30621263160142315
419,13.980633333333333,-0.1199097971348477,9.804043092840315,0.017224628364575334
420,14.014000000000001,0.09713592117721717,9.821699740187677,0.23052615470024682
421,14.047366666666667,0.11606910670300416,9.866522676895377,0.08008011752950067
422,14.080733333333333,0.17867435341491716,9.79625212308156,0.15422684612941617
423,14.1141,0.10067629433344857,9.901938834186597,0.31915008368848985
424,14.147466666666666,0.10669840201581128,9.910743537041004,0.08100728107001265
425,14.180833333333334,0.1391031098420153,9.841685228597505,0.39815571940583727
426,14.2142,0.22998006022764814,9.819647044978545,0.11040805888002253
427,14.247566666666668,0.3869138420095214,9.820784338799083,0.09520627351509753
428,14.280933333333333,0.3260761041494157,9.859409161168992,0.24627211787171882
429,14.314300000000001,0.3642183747285222,9.812516124403079,0.1388042223329297
430,14.347666666666667,0.33646422435074086,9.788134564008903,0.3626426497177484
431,14.381033333333333,0.3102890572205455,9.825803756713867,0.18068483813592479
432,14.4144,0.3697350771067917,9.79927239430267,0.2279960113176937
433,14.447766666666666,0.5487260815308735,9.831304181526736,0.4625214635319003
434,14.481133333333334,0.3819425896453078,9.87918854692489,0.12494119143619896
435,14.5145,0.48602233544114687,9.888052541117966,0.3615233240379994
436,14.547866666666668,0.4550703963408707,9.84495735168457,0.2394201755523681
437,14.581233333333333,0.4465470105967819,9.798682112506828,0.17937900816111446
438,14.614600000000001,0.6052539229754023,9.811217646615837,0.3648023221358631
439,14.647966666666667,0.5228691621380714,9.879986311988452,0.07218229993734115
440,14.681333333333333,0.6873199751122224,9.831697199085308,0.007858302131937611
441,14.7147,0.5767979516664314,9.835927937848666,-0.07544944726966737
442,14.748066666666666,0.5258957630288039,9.839565822834945,0.06798179706428564
443,14.781433333333334,0.6103862906374355,9.836828737869336,0.28630982958277346
444,14.8148,0.5508881008180269,9.853429434334119,0.13665817833566676
445,14.848166666666668,0.7194269306098514,9.845632623910566,0.392710494123969
446,14.881533333333334,0.7638645518990151,9.952582131053912,0.4369779775447307
447,14.9149,0.7199706801335852,9.900365990683422,0.18572165437362567
448,14.948266666666667,0.7201523817639552,9.905792409591813,0.5306255060537959
449,14.981633333333333,0.7803012069193902,9.921928080420924,0.3730176380534495
450,15.015,0.8044521670908844,9.883264413761813,0.21068898610821352
451,15.048366666666666,0.767693398452684,9.939743550033834,0.5254590580596233
452,15.081733333333334,0.7361858594127975,9.859101831728273,-0.044697981438827306
453,15.1151,0.7839564875318964,9.876560562365649,0.2694900632167071
454,15.148466666666668,0.7376595986385454,9.853601017703228,0.3887198725855151
455,15.181833333333334,0.7888893735286793,9.771136188799181,0.22625199795751832
456,15.2152,0.8542513022810643,9.804734928284054,0.4022260678298178
457,15.248566666666667,0.7571356893774162,9.832282945459891,0.05549911363865247
458,15.281933333333333,0.8514510838085634,9.759403842875312,0.1631963168315284
459,15.3153,0.8022175318720309,9.755957113691895,0.416401155855451
460,15.348666666666666,0.8331822156906128,9.838082202855174,0.09429133085581315
461,15.382033333333334,0.8420962745459044,9.782879283313962,0.42764273013232346
462,15.4154,0.8452220098889577,9.763007629524095,0.2492051754468007
463,15.448766666666668,0.7819462189103906,9.73801640989893,0.18403443576607809
464,15.482133333333334,0.9322231935656855,9.779914553545316,0.30135446251066195
465,15.5155,0.8157396456540877,9.826831163115585,0.05096236158118912
466,15.548866666666667,0.680795567960949,9.703450054137306,0.3408838757676357
467,15.582233333333333,0.7862919039646477,9.810256492012547,0.1511132040110334
468,15.6156,0.7976841657970414,9.763299171760755,0.3281654375289078
469,15.648966666666666,0.804226525407777,9.857832344135735,0.4239094541443953
470,15.682333333333334,0.7386114764740237,9.834982116345271,0.16878841468594158
471,15.7157,0.7060015887517004,9.855491316856996,0.2853847442392967
472,15.749066666666668,0.6969705915370571,9.83466846068432,0.09220759336200583
473,15.782433333333334,0.5961430033119706,9.777477240941927,0.39491940525340863
474,15.8158,0.650584783737194,9.92277761292417,0.39335739026956157
475,15.849166666666667,0.5428046630260048,9.883264541625977,0.07637934364796639
476,15.882533333333333,0.7022017485481019,9.891761010128022,0.11629433511474158
477,15.9159,0.6352262139511342,9.881519216131432,0.21818753083277995
478,15.949266666666666,0.41212128749809057,9.896991196300377,0.03261344737155414
479,15.982633333333334,0.5545769885053531,9.843374351587626,0.3167398414864545
480,16.016000000000002,0.4580355763752502,9.834720030347695,0.10534551379551464
481,16.049366666666668,0.3814025877249285,9.830064422757822,0.2915260659274638
482,16.082733333333334,0.551169358383436,9.865843723681948,0.39726017695800653
483,16.1161,0.2861554726284692,9.830656636597974,0.019473038428419607
484,16.149466666666665,0.4199497456365736,9.912199185464914,0.6758452189131584
485,16.182833333333335,0.3413959634578499,9.901295111645787,0.12047879619837219
486,16.2162,0.267155104930044,9.826187039040159,0.17498568942420814
487,16.249566666666666,0.4066710169298551,9.878724208102991,0.43994176748684294
488,16.282933333333332,0.21304694215639747,9.849034047529617,-0.031679818350440314
489,16.316300000000002,0.23443978807322638,9.817375162234521,0.19249055832509154
490,16.349666666666668,0.2465416929299927,9.894070192023873,0.015225165271978362
491,16.383033333333334,0.10520289764054623,9.77456186144555,0.18796525696649924
492,16.4164,0.18882803447409569,9.866819042860062,0.3585680890033977
493,16.449766666666665,0.03886295166841822,9.877033730656757,0.1125925799919954
494,16.483133333333335,0.181959331035614,9.934979049465321,0.1059808141954981
495,16.5165,0.10342899709235652,9.804096521190994,0.36583710987611345
496,16.549866666666667,0.0383072271943092,9.871600716547025,0.03297506715332765
497,16.583233333333332,0.18892220529916642,9.847694664400406,0.2865562828572842
498,16.616600000000002,0.006512431501037584,9.89226708629837,0.12105297470964003
499,16.649966666666668,0.12761701375923304,9.917483191962964,0.37628212449596
500,16.683333333333334,0.06977408313481812,9.864794696072465,0.31968512428906876
501,16.7167,0.06825139624780019,9.921764149042154,-0.20296317988545115
502,16.750066666666665,0.16758264352962055,9.933891312396623,0.33715354504173256
503,16.783433333333335,0.051515981062270844,9.860053932505357,-0.023210631692428103
504,16.8168,-0.03228756640626029,9.875603213756882,0.06703653910616353
505,16.850166666666667,0.07650419928141795,9.90649097785899,0.3188968663711937
506,16.883533333333332,-0.021962794670806893,9.914548785712915,0.0823601891202635
507,16.916900000000002,0.06799520872162976,9.901392008840935,0.1706719145460804
508,16.950266666666668,0.0834902024509196,10.022594817027132,-0.03170158311958239
509,16.983633333333334,-0.013052938127921385,9.8240773231567,0.21507562243112763
510,17.017,0.04398223925209081,9.860563797475265,0.19650258814918242
511,17.050366666666665,0.01869326204462839,9.830947390829497,0.1404731259375097
512,17.083733333333335,0.21928478579581506,9.875062213834386,0.16849995794600225
513,17.1171,0.12176362726431283,9.823341425525276,0.11950808334110687
514,17.150466666666667,0.15239068295675573,9.856210599071886,-0.01691834488745464
515,17.183833333333332,0.08350965817128653,9.864174677747071,0.289730872523346
516,17.217200000000002,0.03447641490213907,9.824739767629552,0.12620132407814777
517,17.250566666666668,0.11078336639070503,9.808459284834445,0.22571616079925977
518,17.283933333333334,0.20980680337307794,9.883215488901355,0.38052151295740727
519,17.3173,0.21304565006296672,9.930559553513335,-0.041181459131743814
520,17.350666666666665,0.23812027401317537,9.855715876671816,0.6135112949378849
521,17.384033333333335,0.20629820203478028,9.854382065932398,0.11068222198427345
522,17.4174,0.2548749886602158,9.854534149169922,0.17152252897731532
523,17.450766666666667,0.23702005846443716,9.919100650428733,0.30419963244970183
524,17.484133333333332,0.23087496148310335,9.8166690723672,0.01090314754268332
525,17.517500000000002,0.3283470859798966,9.815200382641919,0.07832353396023384
526,17.550866666666668,0.32518618925364984,9.892085334430918,-0.14336859437825097
527,17.584233333333334,0.2213080653800967,9.742890246241432,0.1485003840521107
528,17.6176,0.30149176572459185,9.763590103632296,0.27865119108420444
529,17.650966666666665,0.3333323203171675,9.747333471757923,0.027786978927593242
530,17.684333333333335,0.42125673135361374,9.854656924022224,0.3593759880706601
531,17.7177,0.44867389060707247,9.853576328903193,0.32561566206852305
532,17.751066666666667,0.3955216928591508,9.798669256229903,0.03798515811225289
533,17.784433333333332,0.44705096092191865,9.837455896065695,0.4431543125473517
534,17.817800000000002,0.4728962456528009,9.825803756713867,0.1704679065082033
535,17.851166666666668,0.5027208147540735,9.828566269576859,0.32340090134965077
536,17.884533333333334,0.5194470749760441,9.849852453847001,0.3516635235208946
537,17.9179,0.5561387339623814,9.854260572162389,0.0015046750313046642
538,17.951266666666665,0.6703764796257019,9.925840598719512,0.4915628809832068
539,17.984633333333335,0.5989969927003834,9.949766224344367,0.006959313348841204
540,18.018,0.49551068702795636,9.850277876892866,0.10498863739043485
541,18.051366666666667,0.6315675075407343,9.924102378884934,0.29938962020453175
542,18.084733333333332,0.5751972958441813,9.834595342119858,-0.11291659735239545
543,18.118100000000002,0.7061529810405319,9.864657041220793,0.16034156971311025
544,18.151466666666668,0.6362189941829522,9.959559709191108,-0.04596961637015794
545,18.184833333333334,0.5447113642493671,9.826110575811978,0.18515120019617548
546,18.2182,0.7489064467047823,9.849553987488207,0.21413793710468104
547,18.251566666666665,0.641657313810371,9.802489268816261,0.2481827739244176
548,18.284933333333335,0.6806433611739144,9.873528494124756,0.37429171029668584
549,18.3183,0.8479909429734676,9.815048094835943,0.26034798701424944
550,18.351666666666667,0.8164847693529697,9.81966564648092,0.17655567428850039
551,18.385033333333332,0.8917547051851697,9.868343516323316,0.3004300544861275
552,18.418400000000002,0.7080451776466911,9.806650161743164,0.0747003900279621
553,18.451766666666668,0.7259710771264732,9.791351850909619,0.4125396669396423
554,18.485133333333334,0.7561657153289048,9.832164544042373,0.3319722259030034
555,18.5185,0.7604584384961846,9.794679484831338,0.15532290849539304
556,18.551866666666665,0.7578434285830263,9.870723073383424,0.6126821259475255
557,18.585233333333335,0.6469748226572982,9.915237033869662,0.14052212265629097
558,18.6186,0.7485518288245563,9.860493230196145,0.2433873420142305
559,18.651966666666667,0.7634757572740121,9.919375272059284,0.15745680127087539
560,18.685333333333332,0.536299320504757,9.80904389047304,-0.1049515714243685
561,18.718700000000002,0.7450744329234313,9.818620926355985,0.17525399102138736
562,18.752066666666668,0.5908337665395582,9.838385250916971,-0.15195056133254914
563,18.785433333333334,0.7952376193614851,9.860497812167885,0.17599566185148252
564,18.8188,0.7280925607395653,9.888627222712149,0.203923267050556
565,18.852166666666665,0.6178225541010951,9.827813917987394,-0.03333888283303102
566,18.885533333333335,0.6504650789685036,9.908187452444597,0.307331792251582
567,18.9189,0.5707095137900668,9.817937029503085,0.36816037995641293
568,18.952266666666667,0.6291746857546202,9.797627471910067,-0.0017863313206611768
569,18.985633333333332,0.6889164615634238,9.854534149169922,0.38457112910462776
570,19.019000000000002,0.6177041388829034,9.883264625651,0.11013359420911167
571,19.052366666666668,0.5599505530708804,9.846127896740526,0.34125340244063573
572,19.085733333333334,0.609723132762826,9.811118961833012,0.4149937963166571
573,19.1191,0.5899316958805038,9.832987838318168,-0.11349000803301221
574,19.152466666666665,0.6513142878925627,9.916099445105,0.456403810136013
575,19.185833333333335,0.5421332589566086,9.879581245526191,-0.026888770554877334
576,19.2192,0.5099116127078123,9.853966714033113,0.25651586974108415
577,19.252566666666667,0.4821302128707871,9.8956284724379,0.23334317178638064
578,19.285933333333332,0.3398544477847903,9.891098188533046,-0.17009717943011202
579,19.319300000000002,0.4458950397157687,9.899543756593319,0.3648767774144105
580,19.352666666666668,0.4240096741713433,9.920445920416256,-0.006754873475716919
581,19.386033333333334,0.41615944983820263,9.870535655520179,0.12178813203594596
582,19.4194,0.3398489201984113,9.940980763252316,0.319099866042056
583,19.452766666666665,0.3085742283322266,9.868840302997333,0.1381779095104627
584,19.486133333333335,0.44027284381205367,9.913508330330513,0.249989824579315
585,19.5195,0.38957171865809825,9.902075700849537,0.2534463685085966
586,19.552866666666667,0.3209713856515535,9.887775903449697,0.07027280689843732
587,19.586233333333332,0.37668891954950434,9.888372645808932,0.2887419907646543
588,19.619600000000002,0.3267999450463349,9.921307620034732,-0.21273936470166033
589,19.652966666666668,0.2938418821978489,9.781135594768582,0.31698877691834354
590,19.686333333333334,0.1783413873717992,9.847191925282509,0.22250112669522593
591,19.7197,0.22170298476182834,9.890064121817517,0.025186265777934647
592,19.753066666666665,0.31275624300601834,9.953961486466332,0.3507642443612232
593,19.786433333333335,0.10976257885459414,9.95362306150293,0.12266032552025788
594,19.8198,0.15315135352945974,9.830094129546186,0.21413514268066275
595,19.853166666666667,0.2170151142349877,9.950124611875722,0.1502762669179604
596,19.886533333333333,0.049467532312603445,9.891079187331137,-0.04236750031035426
597,19.919900000000002,0.11913462445615906,9.857790207099516,0.3351882398128509
598,19.953266666666668,0.08112540696438253,9.858845030458088,-0.12229774049215845
599,19.986633333333334,0.1632652199981607,9.879165397870526,0.07556653801691993
600,20.02,0.11066549735298195,9.89887105980544,0.10179934856026562
601,20.053366666666665,-0.01693188253706241,9.866422308663076,-0.0398390727358231
602,20.086733333333335,0.03539857417505891,9.819135609419167,0.33967988634508917
603,20.1201,0.02968847539409348,9.891884532771785,0.3323190685252399
604,20.153466666666667,0.07374092238136835,9.877517486118474,0.15673829065080466
605,20.186833333333333,0.132479315854911,9.859322655317978,0.3527463002919284
606,20.220200000000002,-0.007661481159712257,9.827719259094199,0.06512202129719963
607,20.253566666666668,0.07541692305241324,9.873448238351545,0.37524954466803423
608,20.286933333333334,0.06911859611405134,9.852453204127496,0.14677351719224108
609,20.3203,0.1478519658667492,9.890190019009081,-0.13592100873179153
610,20.353666666666665,0.18813085181205264,9.797712388951467,0.2994328277461569
611,20.387033333333335,0.124038379767548,9.828842653350497,-0.17210427032887818
612,20.4204,0.1967458106338763,9.864110946655272,0.09392858318674227
613,20.453766666666667,0.15634746829189403,9.828369477629998,0.16012942405171873
614,20.487133333333333,0.07968876155280054,9.892841339111328,-0.18803606569702047
615,20.520500000000002,0.1510181158177446,9.871845889541301,0.4003868682848631
616,20.553866666666668,0.19025977018758505,9.850628542000344,-0.10740837931109415
617,20.587233333333334,0.13033632441740822,9.765163008306127,0.13128029487106638
618,20.6206,0.2813460651439483,9.966476648331502,0.3299398018994439
619,20.653966666666665,0.2082965251731243,9.90896273595373,0.05602412617350881
620,20.687333333333335,0.32230098576786176,9.963544131811442,0.25904682415718927
621,20.7207,0.35523264042454145,9.94811335139428,0.4018187199494357
622,20.754066666666667,0.32918662523305536,9.870282545038043,0.1934937363604809
623,20.787433333333333,0.39870343840315053,9.93086551575264,0.13555350205055477
624,20.820800000000002,0.3397851184713603,9.923487329047562,-0.04903315561537952
625,20.854166666666668,0.36729429454038043,9.901189963751625,0.36035473565678017
626,20.887533333333334,0.35060935258282544,9.899618756950128,0.48822059189735634
627,20.9209,0.3973009112657318,9.887232112795234,0.05773397281629175
628,20.954266666666665,0.35063086447931247,10.00540849321932,0.4747302205290563
629,20.987633333333335,0.41466254470912634,9.863937884094815,-0.039691727979242586
630,21.021,0.3871765919295896,9.844957489333554,0.22710554038720898
631,21.054366666666667,0.520275916824126,9.97895580083071,0.3646858093610449
632,21.087733333333333,0.47746517106971265,9.900993528037446,0.08761587113182931
633,21.121100000000002,0.5046977836353566,9.82120685909341,0.33040027403002614
634,21.154466666666668,0.5273193370087759,9.87551300780603,-0.07095379444062128
635,21.187833333333334,0.6089548014939055,9.830828447115797,0.25124335928490193
636,21.2212,0.597380189022076,9.890287639474273,0.08732680300827161
637,21.254566666666665,0.5142269941443854,9.827057190772337,0.010817919336585942
638,21.287933333333335,0.5107396099465094,9.843612006392188,0.24678442374163959
639,21.3213,0.5393254205143927,9.890190446158915,0.1876344647842194
640,21.354666666666667,0.6065302881591172,9.776323430687246,0.2410140445253771
641,21.388033333333333,0.6752429920982307,9.875795725707311,0.12822865147249915
642,21.421400000000002,0.5836629622170916,9.88274228719937,0.08288333768844697
643,21.454766666666668,0.6283979407787942,9.831698033449701,0.5562518622643489
644,21.488133333333334,0.6913269203551679,9.848977045734735,0.2487375338681401
645,21.5215,0.5410892462445012,9.83914298422275,0.04172625775776362
646,21.554866666666666,0.7159189313689407,9.878070975799739,0.3424234621429824
647,21.588233333333335,0.6940118207450974,9.82172771564454,-0.030353244153994263
648,21.6216,0.6912318744169061,9.8295632822322,0.05596748546709157
649,21.654966666666667,0.7409921666310054,9.884421879150217,0.1524866829047778
650,21.688333333333333,0.6404182130199716,9.75066291025098,-0.18097644808484717
651,21.721700000000002,0.6184061668803973,9.764319972317226,0.3389581676772744
652,21.755066666666668,0.6673224368122344,9.885134976113802,-0.03853184663159226
653,21.788433333333334,0.6768708176979972,9.8390387998351,0.5078171730839725
654,21.8218,0.6581745370446005,9.841481515996886,0.36335363281386795
655,21.855166666666666,0.6622118466807533,9.769755170347084,0.12167409253214417
656,21.888533333333335,0.741881669541598,9.832483211720886,0.27640024144214614
657,21.9219,0.6339846461737866,9.864110946655272,0.29688104560386985
658,21.955266666666667,0.6564149283317966,9.79290341426824,0.3464611929149999
659,21.988633333333333,0.6738513004357422,9.873687744140623,0.22980730784271908
660,22.022000000000002,0.7387347244426691,9.894492575990013,-0.06736827169832199
661,22.055366666666668,0.6825203376833499,9.868314058789663,0.20390588835960077
662,22.088733333333334,0.5719572371395808,9.907918946406431,0.29815696604000047
663,22.1221,0.4957359934144068,9.811643350288799,-0.04384887617441452
664,22.155466666666666,0.7391163106914257,9.99662450009729,0.44769720750772235
665,22.188833333333335,0.5516378529632506,9.891939183457682,-0.1487878610582834
666,22.2222,0.6129156351089478,9.896175509840814,0.07881279234722005
667,22.255566666666667,0.7031547187431915,9.987128159416216,0.34011875484789666
668,22.288933333333333,0.5335020382304404,9.833907619351084,-0.005598245549208056
669,22.322300000000002,0.6504573687232429,9.942449043652909,0.31469633071431236
670,22.355666666666668,0.5701545431675653,9.904467307055345,0.19480641807562368
671,22.389033333333334,0.4715293042832084,9.86501725078666,0.021225995552136723
672,22.4224,0.6071696244599105,9.90177963690255,0.2732588905021895
673,22.455766666666666,0.535601379060709,9.84726551066898,-0.14868600547299293
674,22.489133333333335,0.5525814352985294,9.927636999151884,0.20414500651959946
675,22.5225,0.41953791603661966,9.834642807433312,0.2711015742757007
676,22.555866666666667,0.38037626208355335,9.848291406225801,0.19600248731999736
677,22.589233333333333,0.44610554400186575,10.001756337899485,0.3808691640289198
678,22.622600000000002,0.3516592050763252,9.924330815608597,0.3095226867504293
679,22.655966666666668,0.39759706058278244,9.836878456610467,0.39986836351738136
680,22.689333333333334,0.24686877819531972,9.856307618559425,0.2345725645763762
681,22.7227,0.30002756534436137,9.878407562053482,0.060809043222068704
682,22.756066666666666,0.31279971059863493,9.860364378861204,0.2043478503820667
683,22.789433333333335,0.289834333095148,9.894283979443758,0.061078477222995115
684,22.8228,0.35028983488101173,9.861090629521444,0.10578596310268272
685,22.856166666666667,0.28973051925030857,9.867558755955598,0.18674875677666972
686,22.889533333333333,0.1419261083671121,9.81057556342014,-0.12629353478387573
687,22.922900000000002,0.15484963394917803,9.80827088565421,0.2712444933474375
688,22.956266666666668,0.11069214440938943,9.918299675999021,-0.030286323676434163
689,22.989633333333334,0.22570589725985288,9.844446122262934,0.5323955120156247
690,23.023,0.20316543939246362,9.887368816118638,0.17648822319521867
691,23.056366666666666,0.1796225224838863,9.878361348885985,0.08455686047302052
692,23.089733333333335,0.23762592529830687,9.812765228694866,0.17233182446742912
693,23.1231,0.21969318112497666,9.89098988415379,-0.08497885194847986
694,23.156466666666667,0.1581353922294295,9.846592843468343,0.17121932733363127
695,23.189833333333333,0.20264537131016053,9.916208815576045,0.2705133233540908
696,23.223200000000002,0.16046453575978614,9.881774873018141,0.13386257374274613
697,23.256566666666668,0.2634380652580147,9.89784643481809,0.02858960938583164
698,23.289933333333334,0.1702779555639829,9.875792307225742,0.05975722312515097
699,23.3233,0.03715756520236574,9.891117543450308,-0.003258541431552797
700,23.356666666666666,0.20714271282803556,9.935403789761441,0.3685280422818785
701,23.390033333333335,0.05432271482680781,9.84495735168457,-0.0545627016498203
702,23.4234,0.20558230564195384,9.8775892979651,0.29957669033108797
703,23.456766666666667,0.1837763852870262,9.937791250720208,0.21244738013918274
704,23.490133333333333,0.15268871463813943,9.882184162059135,0.08737003611541923
705,23.523500000000002,0.181959331035614,9.837294920001165,0.17908653723381482
706,23.556866666666668,0.12130686702409402,9.913590742960508,0.10566481437067507
707,23.590233333333334,0.057358691359795724,9.918864688780982,0.36818350802750666
708,23.6236,0.1931784564267841,9.904880830684942,0.06184140004784672
709,23.656966666666666,0.21718038671162904,9.890571684905884,-0.1325621871797029
710,23.690333333333335,0.2228448858211282,9.943549157976785,0.3619535470902985
711,23.7237,0.17195666801859744,9.973021027177358,-0.022293067083644705
712,23.757066666666667,0.22596999384925967,9.898544773306902,0.009914328438640319
713,23.790433333333333,0.2202665507793426,9.98643900525853,0.3323942658529814
714,23.823800000000002,0.19754565072784394,9.898521559910568,0.05792046647382665
715,23.857166666666668,0.4274678293792469,9.909215506595618,0.1661146173990225
716,23.890533333333334,0.28869992866312216,9.931148529052734,0.17023198565500097
717,23.9239,0.25953081818900203,9.896831492369202,0.06464183305639848
718,23.957266666666666,0.3021710249343519,9.95604745385439,0.21826013139826334
719,23.990633333333335,0.20246328335245642,9.84495735168457,0.031701173506795605
720,24.024,0.35057945406265517,9.860690631038135,0.14091550611059336
721,24.057366666666667,0.3893466188934859,9.918809624115502,0.10906690207245465
722,24.090733333333333,0.3371534200916084,9.890729460577756,-0.17901154407331205
723,24.124100000000002,0.375958035338662,9.856381079569605,0.318292342851218
724,24.157466666666668,0.36323465499307156,9.867029560671044,0.1379061773182621
725,24.190833333333334,0.3739251483098725,9.882896237307765,0.5922274372841789
726,24.2242,0.3953308970593462,9.864110946655272,0.23911617788397466
727,24.257566666666666,0.42779786253723706,9.801713585240297,0.09586953260529615
728,24.290933333333335,0.43781361384150125,9.849615629290415,0.37115328240382367
729,24.3243,0.5477953993392579,9.8444786401968,0.023940733130239436
730,24.357666666666667,0.49182188429966117,9.763661008575099,0.10789693073578821
731,24.391033333333333,0.4596178987018779,9.863881521460481,0.0006882762269336889
732,24.424400000000002,0.4881224967496112,9.875529499680539,0.058639385941000904
733,24.457766666666668,0.5937312230162837,9.84602828118005,0.04265251903023816
734,24.491133333333334,0.5746083855628967,9.8308641215087,0.042848166955249845
735,24.5245,0.4884172337039799,9.78462358293422,0.048842038829378764
736,24.557866666666666,0.5076111176234538,9.888650536299163,0.24907767434876169
737,24.591233333333335,0.5172790775971972,9.807176304672742,-0.03317732861662727
738,24.6246,0.5775967997956589,9.84495735168457,0.2843158183644278
739,24.657966666666667,0.5840870117782576,9.854362297427071,0.2005973851823361
740,24.691333333333333,0.6185634061799036,9.836608415833664,0.02136389697907611
741,24.724700000000002,0.7073683384111334,9.837714592462396,0.30047434542526075
742,24.758066666666668,0.5486881266723503,9.838275241953296,0.15305985033502517
743,24.791433333333334,0.6597280057587048,9.864646783178609,0.15965895372722422
744,24.8248,0.7113103103089893,9.86489147322321,0.2673021005762465
745,24.858166666666666,0.5430397252644337,9.868189779173386,0.020394181630130293
746,24.891533333333335,0.6592391495058916,9.863448367991387,0.364838368037915
747,24.9249,0.5984030182693116,9.91133193779565,-0.15083511819392037
748,24.958266666666667,0.5892899327769896,9.922530036135988,0.1680670299446495
749,24.991633333333333,0.6862898940420628,10.006952864532197,0.2724621016327071
750,25.025000000000002,0.5274333058115016,9.898871915616608,0.017376653266439
751,25.058366666666668,0.6303131089097687,9.872938477490468,0.29083992428318545
752,25.091733333333334,0.6102479897385282,9.872113882766532,-0.03299007818815519
753,25.1251,0.7051717267421757,9.83811210786649,-0.008796362134678522
754,25.158466666666666,0.6393175655597736,9.919243243382878,0.22409712366629958
755,25.191833333333335,0.5297939380114683,9.81156142554369,0.01878543537974641
756,25.2252,0.5746083855628967,9.860705817612004,0.17578765619159922
757,25.258566666666667,0.6711518884759466,9.993203860494958,0.12810363725485296
758,25.291933333333333,0.6158378130711792,9.880023487231346,-0.05566780241089133
759,25.325300000000002,0.6303000820300547,9.8723608841357,0.4736434775692453
760,25.358666666666668,0.53128523460519,9.837433450605676,0.13362022105760832
761,25.392033333333334,0.5919180702601763,9.928864377949424,0.26806739685220743
762,25.4254,0.47432564037670183,9.975612592933627,0.17382131491574954
763,25.458766666666666,0.5354026167258046,9.866806683342332,0.027062922080198337
764,25.492133333333335,0.552451534970155,9.824999997049133,0.2554520946370995
765,25.5255,0.47184263064397824,9.853797262324067,0.12855136818405466
766,25.558866666666667,0.4795675669431333,9.837752374308394,0.17374746762300836
767,25.592233333333333,0.4093135793990132,9.840232224863287,0.037927596368956464
768,25.625600000000002,0.3878599582965403,9.821015595434021,-0.054590691889739196
769,25.658966666666668,0.5405872604102459,9.80532748358058,0.24287326664887965
770,25.692333333333334,0.4096745000241039,9.868603765362286,-0.012887313828985711
771,25.7257,0.35872515018002943,9.693423090225563,0.26833464003391794
772,25.759066666666666,0.48340098024828415,9.87314057968763,0.3883634432059804
773,25.792433333333335,0.32384626287696106,9.753830473128783,-0.11613147206866144
774,25.8258,0.4342395220254798,9.816499826457045,0.23080060110808448
775,25.859166666666667,0.37908228553439877,9.900423148359227,0.19832105344374512
776,25.892533333333333,0.3326854815325896,9.879459076438634,0.14388102401743513
777,25.925900000000002,0.4078244146024312,9.792800915576272,0.4226309073232207
778,25.959266666666668,0.42882970928031494,9.946003268850665,0.05005628429770091
779,25.992633333333334,0.3578520962247224,9.844451805055103,0.11236535561246136
780,26.026,0.27240704452608294,9.85098725233581,0.16777260786159215
781,26.059366666666666,0.2967276023169624,9.861308972074053,-0.05389181969660556
782,26.092733333333335,0.4598991531532016,9.859003280795802,0.32752582635970706
783,26.1261,0.37780501801834127,9.874903259674499,-0.024789214921457744
784,26.159466666666667,0.2531681668848649,9.90241813659668,0.2709583745865972
785,26.192833333333333,0.253679047205027,9.937426430080407,0.10938897902362246
786,26.226200000000002,0.2371496435568468,9.880781997849633,-0.04214150918096343
787,26.259566666666668,0.34482638694210227,9.971407881102087,0.29511285924733416
788,26.292933333333334,0.24151437759354272,9.925351243228606,-0.06621983737092488
789,26.3263,0.2019970261296952,9.911884423536723,-0.10567640862682065
790,26.359666666666666,0.30709654010254983,9.892628431816153,0.18409041872669182
791,26.393033333333335,0.24487341290709597,9.888212809163127,-0.18975220478614943
792,26.4264,0.24083901995037055,9.8294924090627,0.17380137794826486
793,26.459766666666667,0.2474600311818384,9.86334247942499,0.09199676957432351
794,26.493133333333333,0.33112698314922845,9.83402680338227,0.15876959730393084
795,26.526500000000002,0.28558043679099837,9.873687744140623,0.47750002610035874
796,26.559866666666668,0.2067739382459005,9.873687744140623,0.07840301385389642
797,26.593233333333334,0.2500516213087395,9.859470228782962,0.22553973508991904
798,26.6266,0.2269353915892291,9.867232139610765,0.23020172620383228
799,26.659966666666666,0.1723825186491012,9.856719749407885,0.14579727758169786
800,26.693333333333335,0.2713420549498864,9.87368726190776,0.2904951900389968
801,26.7267,0.20299157224545492,9.899287087614587,-0.29072730139527275
802,26.760066666666667,0.16161917166649228,9.829725376825705,0.11528367477400397
803,26.793433333333333,0.1904076357872801,9.911083820877518,0.011326571437513935
804,26.826800000000002,0.17218382452803332,9.857176711310556,0.05184455605213856
805,26.860166666666668,0.2394201755523681,9.96649137617814,0.08607662774241509
806,26.893533333333334,0.22569384590890565,9.926999014278833,-0.011808753592156856
807,26.9269,0.2835836694818559,9.866910386018493,-0.007698465871559038
808,26.960266666666666,0.21634534445287557,9.908757109053314,0.2686548632335299
809,26.993633333333335,0.12098756903987945,9.856597111975947,-0.055151868362445414
810,27.027,0.2284246093959076,9.894260090673749,0.30362120335628523
811,27.060366666666667,0.21244600215691545,9.91375118428559,0.19853912465926482
812,27.093733333333333,0.2921169904016505,9.86656609660688,0.12842502713778997
813,27.127100000000002,0.3537424506644646,9.901818723297046,0.4101243204835717
814,27.160466666666668,0.24306853258216032,9.797620685279707,0.1196646924002059
815,27.193833333333334,0.26455874700303467,9.851607785918121,0.19991423238067624
816,27.2272,0.2433786296343991,9.894629074221074,0.04009496404258833
817,27.260566666666666,0.20356833899963298,9.774445120796576,-0.02043104098754639
818,27.293933333333335,0.3830722570419311,9.803228007377415,0.22220468542200822
819,27.3273,0.3756240886510656,9.87390020910445,0.010643102590268322
820,27.360666666666667,0.30346266835471014,9.789291950084573,0.25158794587903366
821,27.394033333333333,0.3467947969862603,9.900709239372311,0.2557977026079551
822,27.427400000000002,0.3834053491109523,9.836296578149742,-0.08211088806622302
823,27.460766666666668,0.44779254402522944,9.894153688382662,0.23146304514382773
824,27.494133333333334,0.39540744641918063,9.914574231193082,0.08266836949005008
825,27.5275,0.497440859244896,9.83132914346946,0.13646747034851514
826,27.560866666666666,0.4832196287583457,9.903512962608907,0.197106393662101
827,27.594233333333335,0.3926490843296051,9.876652793662853,-0.06040204922164003
828,27.6276,0.48421876133771613,9.875381542784327,0.336296048151602
829,27.660966666666667,0.33382844570328407,9.83454136540933,0.07325769873334878
830,27.694333333333333,0.45968595855962424,9.921571844087309,0.17238072826257786
831,27.727700000000002,0.532322998083617,9.883264541625977,0.25286367538546256
832,27.761066666666668,0.46585793265381314,9.908973336362486,0.08972486666980378
833,27.794433333333334,0.5321501880610744,9.83538055419922,0.4007979769035912
834,27.8278,0.5165095895192254,9.911356937078349,0.1019399416186808
835,27.861166666666666,0.43704531545476866,9.876230512216468,0.0037800778120446465
836,27.894533333333335,0.6452800900118004,9.787250701767356,0.4778568782452514
837,27.9279,0.5300029256628892,9.837516949961968,-0.3359235929741817
838,27.961266666666667,0.564982293334954,9.809154792974315,0.11030480669338627
839,27.994633333333333,0.6242168180861277,9.85834243054478,0.12271228146529095
840,28.028000000000002,0.5517703163904213,9.84201162320068,0.09429308380036991
841,28.061366666666668,0.5639976560845426,9.83538055419922,0.24451651687915832
842,28.094733333333334,0.5325703129496916,9.864159493544571,0.12779244489943725
843,28.1281,0.5905554698007652,9.84495735168457,0.036932982649410466
844,28.161466666666666,0.6107010933536113,9.85141709128522,0.4036213182013857
845,28.194833333333335,0.5509118894093982,9.87945854486485,-0.07256259711259438
846,28.2282,0.641304595273279,9.9167145158368,0.3763700759617949
847,28.261566666666667,0.5402351354364343,9.963995596804208,0.0521834551482708
848,28.294933333333333,0.5479209496033063,9.899685585981498,0.3049756910568525
849,28.328300000000002,0.7343488561381981,9.899889725575335,0.3200177579483073
850,28.361666666666668,0.6113190119775617,9.843360718619701,-0.06704124805723272
851,28.395033333333334,0.5858517479011591,9.972768527253239,0.1945480147912588
852,28.4284,0.5049953222795517,9.913976600747143,0.11617849621763693
853,28.461766666666666,0.449305444465803,9.83526562941454,0.10792421216305756
854,28.495133333333335,0.5568544099372059,9.780669995744521,0.27234941748494773
855,28.5285,0.49062841441180105,9.825251610060684,-0.12449580100409373
856,28.561866666666667,0.6003275787880817,9.883264541625977,0.08345159249156267
857,28.595233333333333,0.6100837415910679,9.892580264710164,0.26189096159916614
858,28.628600000000002,0.4108061114796483,9.692571216827295,0.0828956573795051
859,28.661966666666668,0.5363011956214905,9.790736041208204,0.44056851798498914
860,28.695333333333334,0.4724565577731881,9.9132226706616,0.16108778377550992
861,28.7287,0.5404907406097319,9.82688120587211,0.362239971289418
862,28.762066666666666,0.599958997101803,9.848975883054012,0.2091880659334257
863,28.795433333333335,0.4747163558548797,9.884620873702808,0.061639802884154396
864,28.8288,0.5513692186327999,9.879944663587741,0.5002939043446063
865,28.862166666666667,0.46871139260461625,9.889403681887448,0.17269144761876792
866,28.895533333333333,0.3558312647690567,9.881775120249799,0.17791393048647428
867,28.928900000000002,0.5339070777458476,9.915825587879617,0.18483175687379375
868,28.962266666666668,0.5206586911615254,9.960335465102418,-0.10137718549199623
869,28.995633333333334,0.4433661813842325,9.875981996688557,0.3643357297744245
870,29.029,0.38200810149193326,9.98364378180439,-0.0010641656910585773
871,29.062366666666666,0.39142075013553834,9.902945898802466,0.14444841823006682
872,29.095733333333335,0.44098154367134373,9.907430752495957,0.3905912016415999
873,29.1291,0.3779891614545772,9.90996906642832,-0.07823522480648454
874,29.162466666666667,0.41184958801259863,9.916512695519513,0.06094294687401952
875,29.195833333333333,0.41732789088683153,9.873933238199827,0.1330933221434676
876,29.229200000000002,0.2751731066998514,9.843680480893598,0.10215216060253576
877,29.262566666666668,0.395615202973703,9.895807457755426,0.17594847029680732
878,29.295933333333334,0.2908799645585836,9.832367607432875,0.17473322649930162
879,29.3293,0.3444581986407354,9.826110614921241,-0.1023571757449446
880,29.362666666666666,0.40201313163860747,9.865600666378791,0.26219190150386396
881,29.396033333333335,0.3128209583969511,9.810056335715851,-0.018768579813172932
882,29.4294,0.32246477803792506,9.945718954238115,0.6560113324940456
883,29.462766666666667,0.32078611113956357,9.879016388870642,0.2011129409074783
884,29.496133333333333,0.27652671392386546,9.816303788857555,0.196463902969381
885,29.529500000000002,0.40811890012333857,9.915861718432057,0.2548899913461016
886,29.562866666666668,0.27657795487908143,9.842531372049848,-0.07363583115797925
887,29.596233333333334,0.2899931864045505,9.909578058679985,0.13103955383437707
888,29.6296,0.31529931945180023,9.921571731567385,0.05466310208207373
889,29.662966666666666,0.23016255771492222,9.864110946655272,0.16086576933271254
890,29.696333333333335,0.38614624869972836,9.860090990787764,0.24675060870321777
891,29.7297,0.15982341388036594,9.867573394491515,-0.08132797607641035
892,29.763066666666667,0.24375040028595324,9.941045152083943,-0.0052465812311701665
893,29.796433333333333,0.31769489307500454,9.930318400830352,0.13748362196374964
894,29.8298,0.24430687689487857,9.778381168956061,0.16418991359089935
895,29.863166666666668,0.2855798775406886,9.901843365445977,0.355237749525774
896,29.896533333333334,0.29208122197083103,9.884967363752942,0.1908049030187529
897,29.9299,0.26093109353574867,9.802340395201254,0.2642456658191511
898,29.963266666666666,0.40153850353500475,9.900110109691473,0.31628054615368373
899,29.996633333333335,0.2681505978107452,9.847830519075128,0.015323146360723258
900,30.03,0.32348347412904954,9.882555219628946,0.45365842498272374
901,30.063366666666667,0.24107586895181599,9.822044509926124,0.10615009907734174
902,30.096733333333333,0.18098810794282597,9.81446518592464,0.3229010391867941
903,30.1301,0.2610048333015735,9.920245739913112,0.2861623972618521
904,30.163466666666668,0.2909897524464695,9.879729784719023,-0.05918262646507132
905,30.196833333333334,0.30246745743443976,9.87528415539956,0.3216200596764399
906,30.2302,0.2040594517275484,9.903302088879922,0.09635736647034335
907,30.263566666666666,0.20692929743004862,9.892143576495867,0.06603086950148152
908,30.296933333333335,0.3070949129637695,9.849671454740266,0.2711447310692241
909,30.3303,0.1962905888162861,9.896601227875498,0.011388870822981859
910,30.363666666666667,0.23489548208239475,9.893373140623485,-0.05267899435070428
911,30.397033333333333,0.3819101664982219,9.987126747452743,-0.016389183691046083
912,30.4304,0.21780691543052344,9.905155504028116,0.0954903440975528
913,30.463766666666668,0.37555256949426363,9.921063214349552,0.1532058751435339
914,30.497133333333334,0.26478008606214254,9.858339487224365,0.05649130345774514
915,30.5305,0.2696237413343919,9.842378677684108,0.16188267561202854
916,30.563866666666666,0.43398184905360454,9.907324864876864,0.1420075437757894
917,30.597233333333335,0.33357097160754207,9.847319848119284,0.10372760282908682
918,30.6306,0.37303599594297326,9.854687303548921,0.4541731633258891
919,30.663966666666667,0.3343416256866498,9.83606836583888,0.03317491720853135
920,30.697333333333333,0.3079302204790843,9.795599589697572,0.09969540558738726
921,30.7307,0.35384359690417083,9.933676465152312,0.496997470316673
922,30.76406666666667,0.39032083023009445,9.829108653406328,0.023171316178778156
923,30.797433333333334,0.4309563040733337,9.865684512156614,0.28857892568970933
924,30.8308,0.42145606441510264,9.949766219233595,0.04849649534281143
925,30.864166666666666,0.34038958528411667,9.873687744140623,0.21600907985234574
926,30.897533333333335,0.46413143522854916,9.796907437988473,0.2349517703349066
927,30.9309,0.3175290405473961,9.900349703821927,-0.08396781284388932
928,30.964266666666667,0.4869283264464457,9.905737819386191,0.11236649542574328
929,30.997633333333333,0.5232134392168438,9.912781059125454,0.19684248901492157
930,31.031,0.3926497758428675,9.768344216524468,2.0745398678377282e-07
931,31.06436666666667,0.4527494053469351,9.890790548155083,0.3354729204381703
932,31.097733333333334,0.4226316894592513,9.92698622118902,0.24447689164604391
933,31.1311,0.5146291567582493,9.82984704595721,0.22384780224801096
934,31.164466666666666,0.604297579420164,9.90840498617717,0.4302426252381497
935,31.197833333333335,0.5121135765842629,9.908434363935376,-0.054637233652898465
936,31.2312,0.7231494573866554,9.841324158134341,0.34265571144134627
937,31.264566666666667,0.5580211171110386,9.821064541369937,0.21384628627967772
938,31.297933333333333,0.48885820392353707,9.849868269830951,0.23077450406035915
939,31.3313,0.5223262151292234,9.866167530824457,0.2544606151003508
940,31.36466666666667,0.5363011956214905,9.803245262748728,0.08363550733266673
941,31.398033333333334,0.5555615752869327,9.830565459282859,0.11390722969050826
942,31.4314,0.5451118299391711,9.939959164959909,0.17480893074568607
943,31.464766666666666,0.449750753442344,9.844598193085773,0.12616092122258377
944,31.498133333333335,0.6221975851088611,9.8881020865323,0.3611452504992393
945,31.5315,0.5331090662515385,9.883264541625977,-0.04894662650965878
946,31.564866666666667,0.4788403511047363,9.80014778928707,0.07046559835048023
947,31.598233333333333,0.6120589906833382,9.898170079388018,0.09822814091370205
948,31.6316,0.43506031992010713,9.798578168507348,0.08879046932536436
949,31.66496666666667,0.5483464007513923,9.887586869229848,0.27122315016310367
950,31.698333333333334,0.417477846148529,9.876998222409055,0.09174831006454562
951,31.7317,0.510635078994837,9.750376712526997,0.3127002575216228
952,31.765066666666666,0.517172146247086,9.873466298710378,0.4403854711187171
953,31.798433333333335,0.5595806744110475,9.853209051158062,0.2406950797318896
954,31.8318,0.587120930910321,9.804095892020388,0.5964388567809974
955,31.865166666666667,0.5032554046766594,9.799556405960654,0.07288988797082971
956,31.898533333333333,0.5348582985775081,9.87002228815111,0.30139608279789937
957,31.9319,0.6259912681414296,9.83615389617519,0.170835839884253
958,31.96526666666667,0.4501099288463592,9.858961823761526,-0.05695414731067272
959,31.998633333333334,0.5724960132989881,9.830813406983253,0.23168442947873638
960,32.032000000000004,0.5171475410461426,9.780561620303171,-0.049535280164308415
961,32.06536666666667,0.5039881871943221,9.856945809050844,0.20834792494622215
962,32.098733333333335,0.46488838532908466,9.700406111652532,0.24292028011753014
963,32.1321,0.3720781486815654,9.906440469355378,-0.026814287532686054
964,32.16546666666667,0.4759679106384492,9.903694775479648,0.3438075571427735
965,32.19883333333333,0.5253739425237189,9.93704197985476,0.24113950294051972
966,32.2322,0.3988374443125763,9.852177516361294,-0.017385510597496576
967,32.265566666666665,0.38819209939078125,9.95378899283964,0.5242938814588088
968,32.29893333333333,0.38285980225447935,9.992889276673363,0.1253028855688244
969,32.332300000000004,0.3583549082687429,9.909305996130978,0.2867873106710881
970,32.36566666666667,0.475751092507535,9.96677836432048,0.3716419043982588
971,32.399033333333335,0.3424509685732195,9.85948278660424,0.08394791179699912
972,32.4324,0.3906060274142283,9.946726777203086,0.3493618123750991
973,32.46576666666667,0.4452448963565417,9.88179612321275,-0.05112738754399811
974,32.49913333333333,0.3069771525402915,9.83448180481783,0.22541957555965622
975,32.5325,0.42800919909191903,9.929490453558977,0.25341764111251275
976,32.565866666666665,0.40956762600517643,9.930509942964765,-0.17365570116629347
977,32.59923333333333,0.4054192575019019,9.905929517724207,0.42968096068350203
978,32.632600000000004,0.3867549447181266,9.8411285006279,0.10078509075148898
979,32.66596666666667,0.25126689969069727,9.833429558092998,0.15630239145451869
980,32.699333333333335,0.4371128859980629,9.906750479718795,0.3691638543349034
981,32.7327,0.2786094955125481,9.83607030164379,-0.04868646393622357
982,32.76606666666667,0.22480724351444503,9.853398977163671,0.09815544687559175
983,32.79943333333333,0.43010671034786624,9.879195344467664,0.19627615070720167
984,32.8328,0.22792782496245492,9.774236253992004,0.20273423849847588
985,32.866166666666665,0.37595125948445773,9.809535100288379,0.17913810895230364
986,32.89953333333333,0.29476968403719883,9.863988465189214,0.24801712185599806
987,32.932900000000004,0.284097006639417,9.820389984131003,0.3432193814067074
988,32.96626666666667,0.33001031613470594,9.887663429781812,0.38796940831051824
989,32.999633333333335,0.1981167912748919,9.838376699055473,-0.03735113898477105
990,33.033,0.3441253070807203,9.875602769975764,0.42648485884188997
991,33.06636666666667,0.2582544357869422,9.855811023465064,0.0861912593245506
992,33.09973333333333,0.2840261729379414,9.803969068708565,0.3908582619137983
993,33.1331,0.2968810200691223,9.938235098350253,0.1166083114469117
994,33.166466666666665,0.27836563847648754,9.853895906982613,-0.21293309895893164
995,33.19983333333333,0.3603712187513901,9.856218537422606,0.324724565906417
996,33.233200000000004,0.3534578882015631,9.890778729687495,-0.08309773730793396
997,33.26656666666667,0.3125966252718051,9.858328009911295,0.08582267693036691
998,33.299933333333335,0.36052964357783457,9.84620919097187,0.28448161362454905
999,33.3333,0.22645773893323162,9.873551259498896,0.03478511820049968
1000,33.36666666666667,0.3707753664585339,9.827695584222933,0.15748320097798985
1001,33.40003333333333,0.3265469964783427,9.88821299198028,0.2360722384799324
1002,33.4334,0.336581734549569,9.817272079467969,0.3099346230160512
1003,33.466766666666665,0.3483379516126357,9.87850066081502,0.41457692374905425
1004,33.50013333333333,0.31521417753376096,9.908255703860837,0.13471423673538657
1005,33.533500000000004,0.33901886078377846,9.87081469722313,0.2949654689959861
1006,33.56686666666667,0.296562003698764,9.930590251273268,0.03910476768587466
1007,33.600233333333335,0.31531152043632704,9.945152174535002,0.0006569244215822723
1008,33.6336,0.42904007442050923,9.93114781385779,0.24899054223743997
1009,33.66696666666667,0.32604881951560666,9.917279933465128,-0.030598419109826497
1010,33.70033333333333,0.24048416029870356,9.963662342447344,0.16599770658480334
1011,33.7337,0.3519872309992039,9.933302489706152,0.2950860410618961
1012,33.767066666666665,0.3115894347807982,9.9134611091288,-0.10181941707868242
1013,33.80043333333333,0.31965174154639386,9.90422669099236,0.4488353677567237
1014,33.833800000000004,0.34955349740162994,9.950302124023438,-0.02489943102057847
1015,33.86716666666667,0.25839509516553083,9.843478621403232,0.061182283158661366
1016,33.900533333333335,0.4307107237338229,9.938981868945865,0.42388410903029017
1017,33.9339,0.2243184203735988,9.874203505918604,-0.1325280034412658
1018,33.96726666666667,0.4052992907038712,9.822587716789675,0.34221037131573445
1019,34.00063333333333,0.4778863378020357,9.882897615709012,0.30886730240317667
1020,34.034,0.3337154573817289,9.828013859427474,0.14291193961935264
1021,34.067366666666665,0.4092253142634208,9.83538055419922,0.13741141061256396
1022,34.10073333333333,0.33148899164651524,9.815852456684397,-0.044207691545854626
1023,34.134100000000004,0.3969391250747356,9.874491816138182,0.44198715645861464
1024,34.16746666666667,0.40166701942822475,9.845516213491589,0.21218005260546738
1025,34.200833333333335,0.3807394522618661,9.822979795203619,-0.016943788261255588
1026,34.2342,0.40252026216070824,9.900060733794298,0.3617084382085966
1027,34.26756666666667,0.39491931387110946,9.809250964865612,-0.02546848067648022
1028,34.30093333333333,0.38033923373189743,9.85726718591043,0.3484656235266687
1029,34.3343,0.49795572196106636,9.889814711111828,0.14629649387965138
1030,34.367666666666665,0.4054182904418298,9.965624833410471,-0.09640529775524403
1031,34.40103333333333,0.41808038824688204,9.847935932621926,0.2968810200691223
1032,34.434400000000004,0.5267243981361389,9.820440593397178,-0.12411613767744736
1033,34.46776666666667,0.5267243981361389,9.842784243658746,0.08213982901631012
1034,34.501133333333335,0.5234863769664075,9.950302124023438,0.36583457381275664
1035,34.5345,0.5047332877930902,9.890536098434751,0.028021824303436523
1036,34.56786666666667,0.5621712781475747,9.841381964272108,0.34703756739189584
1037,34.60123333333333,0.6387277256335498,9.888075997051008,0.3411632427816121
1038,34.6346,0.5187678457777709,9.857774672437463,0.2516399100197283
1039,34.667966666666665,0.7530209658323234,9.952241228676563,0.3100169662439404
1040,34.70133333333333,0.6080043937900047,9.895788330075867,0.1652613362830704
1041,34.734700000000004,0.5495881002758636,9.873806984440439,0.37373395393884934
1042,34.76806666666667,0.6071920448647338,9.878772109590907,0.14830433932576254
1043,34.801433333333335,0.47197639527262125,9.777255181300113,0.24689417850382223
1044,34.8348,0.6364470569779319,9.909395448788496,0.38170209067620114
1045,34.86816666666667,0.5947595070349144,9.867751979647448,-0.07028081732854666
1046,34.90153333333333,0.5699415859131668,9.81912431856803,0.18799725223664748
1047,34.9349,0.5627479189228882,9.887389759068567,0.33784096564427524
1048,34.968266666666665,0.5136364608340334,9.87729755178231,0.01097750087366996
1049,35.00163333333333,0.49883635130675397,9.778762168488164,0.6219030342592271
1050,35.035000000000004,0.5130433784577569,9.853167413608947,0.11492338054598226
1051,35.06836666666667,0.46647607426510207,9.891993691612692,0.33603587825665215
1052,35.101733333333335,0.567184056085472,9.896411720035077,0.37139411514851745
1053,35.1351,0.4411080541274934,9.89525497988298,-0.03849887477726434
1054,35.16846666666667,0.4906646921887942,9.916685567378089,0.22659398172590783
1055,35.20183333333333,0.5176481335625875,9.979533095955665,0.16580016429556227
1056,35.2352,0.4539409387685694,9.841127796402708,0.21451567048022832
1057,35.268566666666665,0.5999696735878017,9.87627693375906,0.24924628196391982
1058,35.30193333333333,0.5069076819203435,9.914966173199474,0.004616322458107579
1059,35.335300000000004,0.5044673573223645,9.903758738825502,0.28803005426231776
1060,35.36866666666667,0.4363586350259309,9.891613483097316,0.17336492503583983
1061,35.402033333333335,0.3879820028098051,9.85018819025125,-0.02768130691302695
1062,35.4354,0.429360601017961,9.899704667209617,0.48745869598960667
1063,35.46876666666667,0.44528595097974927,9.813779428479501,0.003747382184079606
1064,35.50213333333333,0.37246390362875414,9.801984512137734,0.3025286621609795
1065,35.5355,0.42540180098686875,9.860662983920236,0.28194245471258966
1066,35.568866666666665,0.4501099288463592,9.919406142480247,-0.10029183045950425
1067,35.60223333333333,0.43474140329604544,9.833373943380344,0.274626687218206
1068,35.635600000000004,0.38551191061559,9.906423618476262,-0.09889387421153903
1069,35.66896666666667,0.3148300623488726,9.766377299488054,0.1385790822975806
1070,35.702333333333335,0.4278822768440475,9.889767311882043,0.2919155049557997
1071,35.7357,0.4020261713800689,9.870416230357387,0.06560160695430918
1072,35.76906666666667,0.34629621998677895,9.821104443699324,0.4069975669646517
1073,35.80243333333333,0.31291684721339086,9.939105971192596,0.22279810064759484
1074,35.8358,0.29128229843285824,9.800314620986562,0.2442830459047674
1075,35.869166666666665,0.40733409134530263,9.956367891237306,0.4035051530297197
1076,35.90253333333333,0.3214732275124167,9.834647726845892,0.14641814478090084
1077,35.935900000000004,0.3673438881369633,9.802635259537247,0.4059823367382106
1078,35.96926666666667,0.3926490843296051,9.87872433055502,0.02222897811113153
1079,36.002633333333335,0.29930126943584595,9.803617216846025,0.19201409508075004
1080,36.036,0.37865341670569164,9.798546931400097,0.3609733705376055
1081,36.06936666666667,0.4068601976964572,9.834221976580874,-0.04301567010653412
1082,36.10273333333333,0.41766688392007273,9.92313274005224,0.22243897378825772
1083,36.1361,0.3595903532189901,9.848136921442224,0.22739354357206007
1084,36.169466666666665,0.27931172144407723,9.809747973441656,0.026650210199521372
1085,36.20283333333333,0.31171593055873803,9.837070194450314,0.41537117104535143
1086,36.236200000000004,0.2911354962450219,9.844957891242288,0.14748447412791266
1087,36.26956666666667,0.2742509987748537,9.795122062045094,0.34832360492276593
1088,36.302933333333335,0.4101330792582562,9.838818262098233,0.38022543544355
1089,36.3363,0.24735037861575127,9.837104858883464,-0.07266877867919733
1090,36.36966666666667,0.2910068820084665,9.803840903516413,0.49569351835614095
1091,36.40303333333333,0.33281743497331384,9.952127008245307,0.17017157661004675
1092,36.4364,0.3088151976088284,9.904775504271607,0.06585893910699953
1093,36.469766666666665,0.4352837707486297,9.912432377975879,0.3050515588972404
1094,36.50313333333333,0.262749903281031,9.902391695157505,-0.06286153159588782
1095,36.536500000000004,0.3363853331243235,9.946112271936498,0.17238242038714988
1096,36.56986666666667,0.37777793290907735,9.960304249959579,0.05990993521399376
1097,36.603233333333336,0.2095724389024365,9.850999843536751,0.02927755756158623
1098,36.6366,0.3652443979976468,9.981535665332121,0.4159282229181372
1099,36.66996666666667,0.2586959528553146,9.8737488352307,-0.1333666415570659
1100,36.70333333333333,0.31156439701544175,9.876879699440341,0.3090106464584281
1101,36.7367,0.30214822735237806,9.93737335341715,0.31603588552498235
1102,36.770066666666665,0.2558670526451076,10.001710439122222,-0.0191536135971546
1103,36.80343333333333,0.39034108193520545,9.942688523068906,0.3009130182894528
1104,36.836800000000004,0.33430538551911454,9.886654524618129,0.119935958353406
1105,36.87016666666667,0.30691417101097856,9.835950995576058,0.38683057660530756
1106,36.903533333333336,0.45988409901320937,9.926434147787608,0.242394186524266
1107,36.9369,0.35167731909981126,9.880600013114028,-0.016489082494011507
1108,36.97026666666667,0.36649714668699174,9.848226340710877,0.43705723614836534
1109,37.00363333333333,0.39763457498028015,9.957178155254446,0.03857730402985813
1110,37.037,0.3104482604518062,9.841764200961965,0.1524276381456826
1111,37.070366666666665,0.39085234659655343,9.899947625096756,0.33645512707380687
1112,37.10373333333333,0.2747312836369233,9.809302319986433,-0.017044207722321847
1113,37.137100000000004,0.3086411839814125,9.92586204448679,0.22045756576192904
1114,37.17046666666667,0.34805561040964295,9.864110946655272,0.2521167934147542
1115,37.203833333333336,0.3153499954512579,9.799352791669591,0.0851603128680341
1116,37.2372,0.32848467900833694,9.854534149169922,0.22569547994228462
1117,37.27056666666667,0.3611795672290969,9.82991239258417,-0.10936333440017793
1118,37.30393333333333,0.40669501484137277,9.819738612945075,0.3683871067689597
1119,37.3373,0.4078057387260865,9.903001794757177,0.14898444752093445
1120,37.370666666666665,0.3797572596236696,9.832925075419633,0.08778721638471414
1121,37.40403333333333,0.4022258818149566,9.804734437784122,0.430958118251373
1122,37.437400000000004,0.3773261784768216,9.877813134410305,0.19345149252459307
1123,37.47076666666667,0.3171103275795788,9.807643126213694,0.44003661880841405
1124,37.504133333333336,0.4997562481638254,9.93515814942138,0.2609234949318735
1125,37.5375,0.4692635238170624,9.892841412176217,0.15322912797213045
1126,37.57086666666667,0.41663193188425046,9.813839566340135,0.5388519479849921
1127,37.60423333333333,0.5103596529005798,9.91535804187962,0.034944116126172056
1128,37.6376,0.4984727994240821,9.950062697721656,0.25558093900331624
1129,37.670966666666665,0.574289124385863,9.911912162742082,0.4496724227507828
1130,37.70433333333333,0.4764757102261448,9.859499943020516,0.14767179155324542
1131,37.737700000000004,0.5323504973251308,9.816226959228516,0.09959769038957028
1132,37.77106666666667,0.5270897016094591,9.81390125979307,0.20909471317241585
1133,37.804433333333336,0.4536359753272222,9.841647550739824,0.21527362234305694
1134,37.8378,0.3821878384282173,9.880023900330205,0.3743799079726158
1135,37.87116666666667,0.43709167786396735,9.838821994192312,0.002393019077416625
1136,37.90453333333333,0.5004983116290621,9.866615299676997,0.48581237195187843
1137,37.9379,0.43526590669813897,9.86889978296192,0.30119235507005054
1138,37.971266666666665,0.5035621593812328,9.900427115778108,0.017647074059395185
1139,38.00463333333333,0.497095306945942,9.893290658326514,0.4865362951206681
1140,38.038000000000004,0.490627584608246,9.93262216223464,0.05083130221987347
1141,38.07136666666667,0.5695648220143211,9.88041248856308,0.34827764377560133
1142,38.104733333333336,0.5710241923354284,10.008795064785662,0.17651114220543201
1143,38.1381,0.5258048794854316,9.897859609708428,0.08385363282928532
1144,38.17146666666667,0.6323636215898606,9.8809807361768,0.24963480519872516
1145,38.20483333333333,0.6561213035902874,9.901592541288737,0.09086963723231484
1146,38.2382,0.46177534441924806,9.85105113571639,0.1222318443468999
1147,38.271566666666665,0.5345233111652112,9.87294695971893,0.3108491191892753
1148,38.30493333333333,0.4599418087213093,9.865796726923062,0.005412272324118339
1149,38.338300000000004,0.4934530109666512,9.897877205020656,0.2071750356877477
1150,38.37166666666667,0.5718889875351877,9.943680342119274,0.08252938805074765
1151,38.405033333333336,0.38319514192411747,9.768416702639291,0.0957680642604827
1152,38.4384,0.5041506201649785,9.85617604177959,0.23750553634181765
1153,38.47176666666667,0.4861830211748878,9.883264541625977,0.16529186744911406
1154,38.50513333333333,0.46294886801459456,9.847558205546813,0.4020605506430345
1155,38.5385,0.5410898365768061,9.811438616381011,0.21069052558257317
1156,38.571866666666665,0.508111246967149,9.831402886952867,0.09920524953978495
1157,38.60523333333333,0.4908643678378661,9.855513035650542,0.6466711046893766
1158,38.638600000000004,0.482671780636182,9.822452154103553,0.2370301148877202
1159,38.67196666666667,0.35963191140416567,9.803685917636223,0.3100605124101375
1160,38.705333333333336,0.5058520096481374,9.997695196396911,0.18097750248165434
1161,38.7387,0.48067892401429557,9.884682197797252,0.22945950157469053
1162,38.77206666666667,0.4033689371232744,9.783107946404726,0.49785772108477777
1163,38.80543333333333,0.47782348151339327,9.952335860041702,0.06474582193377582
1164,38.8388,0.41371720844247356,9.91390893456821,0.16854511509360848
1165,38.872166666666665,0.401313686360765,9.977778248705777,0.3573065003442529
1166,38.90553333333333,0.3555421615161468,9.828791700285988,0.1543779551963098
1167,38.938900000000004,0.4454747716193493,9.878016375063584,0.2925898422473585
1168,38.97226666666667,0.44422174476440224,9.929304214330058,0.01910814596719282
1169,39.005633333333336,0.280986337108868,9.801084365725236,0.15924541643922904
1170,39.039,0.42747395548587924,9.885005959894762,0.18021992231056655
1171,39.07236666666667,0.2867937760810302,9.794541450150986,-0.09934105802037552
1172,39.10573333333333,0.3510730721325417,9.883264541625977,0.2711898154755459
1173,39.1391,0.3853707917019884,9.84725586929762,0.3134303399099042
1174,39.172466666666665,0.3174589117953396,9.912191544028373,-0.13672726313661238
1175,39.20583333333333,0.3660672873113813,9.853858861357118,0.22941360768468466
1176,39.239200000000004,0.3310840410763516,9.84495735168457,0.07196309152209714
1177,39.27256666666667,0.3324746580177946,9.821494259951127,0.22010546665893857
1178,39.305933333333336,0.40525955365541955,9.92747808450568,0.06991393636155374
1179,39.3393,0.30230792388993377,9.847192508801387,0.042772864834101254
1180,39.37266666666667,0.3960776824839023,9.862100390287896,0.27784391926830676
1181,39.40603333333333,0.5194924860884622,9.959878921508787,0.2359945333775159
1182,39.4394,0.3447650372982025,9.879433838649962,0.004714765226639606
1183,39.472766666666665,0.3513680115015604,9.862531621873275,0.1607559186048105
1184,39.50613333333333,0.2777273952960968,9.851767635553399,0.045329517208222814
1185,39.539500000000004,0.416774437707378,9.923597352626368,0.09355535382060831
1186,39.57286666666667,0.363918662071228,9.865719327387893,-0.006303807534515815
1187,39.606233333333336,0.3596407360429348,9.791061501431429,0.03443432153566813
1188,39.6396,0.3645585254716411,9.857726958924147,0.2841162882975272
1189,39.67296666666667,0.17071802420681095,9.86680157722196,-0.16741143739875136
1190,39.70633333333333,0.28589966449857945,9.842403195613565,0.35229750155597583
1191,39.7397,0.3053404601249239,9.802141101923235,0.17002890038389057
1192,39.773066666666665,0.3761469390926241,9.851562839797575,0.16186943057499195
1193,39.80643333333333,0.39974864077577915,9.827410960516737,0.6652227480214289
1194,39.839800000000004,0.3451144984469135,9.868638529205187,0.20459726207476542
1195,39.87316666666667,0.2763965467256228,9.779782955546342,0.45436333184273964
1196,39.906533333333336,0.36343455732086116,9.986234725871306,0.06836558221678166
1197,39.9399,0.2880225503528096,9.887574590940892,0.073022742271867
1198,39.97326666666667,0.3591544928427186,9.847560391866159,0.3117608586149677
1199,40.00663333333333,0.35991578615678277,9.920724716362908,0.07989326552100885
1200,40.04,0.29049706930785124,9.90880161691767,0.24899562131871805
1201,40.073366666666665,0.277362794907497,9.845321959240092,0.3057285941418742
1202,40.10673333333333,0.2016323841511969,9.880734856478515,0.04137885902201788
1203,40.140100000000004,0.31448761619409227,9.965735555367923,0.33979260232430214
1204,40.17346666666667,0.3810804897667712,9.909262008400137,0.1499864751551751
1205,40.206833333333336,0.2530488642988074,9.758643779966448,0.13880250467613112
1206,40.2402,0.3882719403007575,9.921024869814262,0.4339685232912759
1207,40.27356666666667,0.3032444885372517,9.913335977749698,-0.04386090049722019
1208,40.30693333333333,0.25739451729699014,9.874006332527905,0.38751831463132114
1209,40.3403,0.39548454739948447,9.83541914729479,0.09481345243863704
1210,40.373666666666665,0.4022256752634306,9.953494688203783,-0.21068995984551708
1211,40.40703333333333,0.48185433322243926,9.890582430326317,0.29645316323159526
1212,40.440400000000004,0.38896568302510165,9.887095236171449,0.08044515265935574
1213,40.47376666666667,0.3015713981348422,9.844147281989475,0.17235653734296624
1214,40.507133333333336,0.3789578608006094,9.903789602010454,0.10522757234820423
1215,40.5405,0.31737528156690364,9.81067212735005,0.09998064557780884
1216,40.57386666666667,0.44384316559486225,9.876265113236693,0.47938335806346577
1217,40.60723333333333,0.42432067082588565,9.960608217175144,0.14073491661818427
1218,40.6406,0.39408593366784195,9.865387402107887,0.21276145447656694
1219,40.673966666666665,0.43704443607514537,9.939904308472538,0.10787613049871494
1220,40.70733333333333,0.35702250031083593,9.861430293842766,0.1541206866802614
1221,40.740700000000004,0.4726347453199075,9.849439763883996,0.22815775855364456
1222,40.77406666666667,0.5041743069638756,9.904895804735503,-0.23997745188639436
1223,40.807433333333336,0.4324270403531113,9.798053854093926,0.09357898717157856
1224,40.8408,0.44014965341116347,9.887862818961933,0.26624295162610734
1225,40.87416666666667,0.4173898608998645,9.878931980025325,-0.06042168091050189
1226,40.90753333333333,0.4443638359077755,9.839211284574656,0.25793530488861977
1227,40.9409,0.45359609513104276,9.85579869881621,0.27251848051420624
1228,40.974266666666665,0.49733085118888504,9.86818733899913,0.19828657792697385
1229,41.00763333333333,0.5635652158459195,9.84624610185607,0.49101721985452684
1230,41.041000000000004,0.5193584191523426,9.854534149169922,0.2018507802630352
1231,41.07436666666667,0.4849043279685828,9.803825732335243,0.36047681470615267
1232,41.107733333333336,0.5525947115204456,9.953543020041266,-0.007567467585244167
1233,41.1411,0.5080128140580584,9.849524726526434,-0.024678540134767196
1234,41.17446666666667,0.5805998027923915,9.868383474022314,0.2532202839510735
1235,41.20783333333333,0.5036127727973894,9.843106434931302,-0.006701320326322431
1236,41.2412,0.559580114822237,9.81298502524248,0.046998518234226905
1237,41.274566666666665,0.49690845354464785,9.821829487911778,0.17166477734604363
1238,41.30793333333333,0.473733288423635,9.812343565523676,0.03857060005194901
1239,41.341300000000004,0.4629816562070616,9.903988602277385,0.22398231094961185
1240,41.37466666666667,0.4144631624791661,9.8763482177991,0.11931350789690309
1241,41.408033333333336,0.5163210604551521,9.776082273498403,0.2202665507793426
1242,41.4414,0.5334296941481975,9.916783699670171,0.41467785519235334
1243,41.47476666666667,0.41914547036821453,9.905724618130183,-0.09435294951449043
1244,41.50813333333333,0.49056233208380606,9.869831435971854,0.39178094777789996
1245,41.5415,0.44237453111513025,9.896340506236132,0.2412640389034141
1246,41.574866666666665,0.4514528747457715,9.893391735867393,0.12308945641391603
1247,41.60823333333333,0.5743989546171836,9.895427943287167,0.2499760756283226
1248,41.641600000000004,0.5034207295871633,9.854534149169922,0.0063838536503067755
1249,41.67496666666667,0.43787799668226013,9.886237430193667,0.28131323880619274
1250,41.708333333333336,0.4967173648192464,10.02972597061088,0.07329486643732025
1251,41.7417,0.4945684289950236,9.917446460731071,0.11164266404562093
1252,41.77506666666667,0.460939789610787,9.88106533859051,0.48621793333925867
1253,41.80843333333333,0.5540239063110745,9.950302124023438,0.1349395662128297
1254,41.8418,0.4979939460754394,9.878696222558183,0.16825435457279792
1255,41.875166666666665,0.48313992469522665,9.866812634653972,0.33273884532179543
1256,41.90853333333333,0.3407362992791071,9.784401844354017,-0.07278815372474445
1257,41.941900000000004,0.4242525595705029,9.816226959228516,0.18004387114239734
1258,41.97526666666667,0.5164113176407069,9.938957217529824,-0.01856240781934701
1259,42.008633333333336,0.44160879370134987,9.698586264694944,0.15974284561945934
1260,42.042,0.3948594466169006,9.850851371551345,0.23794951670704936
1261,42.07536666666667,0.39511038279267774,9.868944083046419,-0.14075441232292946
1262,42.10873333333333,0.5251419890497027,9.770768883648053,0.24401828595098193
1263,42.1421,0.34502290098935967,9.837627357232558,0.1647207879213508
1264,42.175466666666665,0.34646718806557897,9.790121450507943,0.12291281351497907
1265,42.20883333333333,0.5458105951877424,9.781910719070478,0.20609978235550555
1266,42.242200000000004,0.3938803635272121,9.950028687927931,0.053766999606466664
1267,42.27556666666667,0.33933777066259396,9.794998599010105,0.40128972403258883
1268,42.308933333333336,0.34122917812922704,9.899668026762415,0.11649317444503406
1269,42.3423,0.390493770737792,9.883623758591744,-0.04980218338837794
1270,42.37566666666667,0.37177660530136436,9.82531249360923,0.4935725857740547
1271,42.40903333333333,0.2998922792681421,9.847215808642277,-0.05262303564148339
1272,42.4424,0.4386177238273759,9.797711717061095,0.21771262189660112
1273,42.475766666666665,0.36240798065355523,9.85381045287614,0.22465092638314416
1274,42.50913333333333,0.15131234337215527,9.788871635038028,0.052106604579268745
1275,42.542500000000004,0.3351882398128509,9.908679794765149,0.16299002165347798
1276,42.57586666666667,0.22927354501511404,9.818804085627754,0.11136681641959985
1277,42.609233333333336,0.4872878037005999,9.826180195832949,0.06997895686612678
1278,42.6426,0.4150621374035728,9.8777094713708,0.3815477130519145
1279,42.67596666666667,0.26506460035491786,9.899093022988168,-0.07685358187220233
1280,42.70933333333333,0.3420646760575954,9.931148529052734,0.3820931253029386
1281,42.7427,0.21792519397054352,9.905078584908466,0.2094133851284559
1282,42.776066666666665,0.28698443026534737,9.916122116629092,0.15327225899530714
1283,42.80943333333333,0.3193006772068923,9.991211249739326,0.28293127531338513
1284,42.842800000000004,0.2867569595967793,9.896398433307189,-0.04391649521854443
1285,42.87616666666667,0.3431671700719096,9.902540244306625,0.32278199862118295
1286,42.909533333333336,0.2953203518639011,9.909914045300264,0.1043044310419401
1287,42.9429,0.29944744196001155,9.951643195695604,0.1969372265127179
1288,42.97626666666667,0.27102370405281345,9.852937876448431,0.23718588910149588
1289,43.00963333333333,0.23834477131408077,9.892841339111328,0.06188394752170241
1290,43.043,0.3695055104067411,9.831389682047039,0.08379544221438942
1291,43.076366666666665,0.3093562125334314,9.872018141737117,0.26304811131043937
1292,43.10973333333333,0.22164114002908794,9.769521189849206,0.05308783354795521
1293,43.143100000000004,0.33238615128624627,9.7984564384044,0.1723825186491012
1294,43.17646666666667,0.35214298086531054,9.825803756713867,0.20196683786547415
1295,43.209833333333336,0.3685887797953209,9.747888844699435,0.23717348467905303
1296,43.2432,0.3160346150398254,9.849819669547932,0.31412089041300884
1297,43.27656666666667,0.3297602611022819,9.783574957098551,0.03427199950588476
1298,43.30993333333333,0.3445098759625751,9.816201443118775,0.3345248203044876
1299,43.3433,0.3009597410094743,9.795725736759161,0.13702151071404986
1300,43.376666666666665,0.27958941960187733,9.720992336287898,0.19193143361399367
1301,43.41003333333333,0.458529986252317,9.791095937990702,0.3041443404959082
1302,43.443400000000004,0.3809827821107978,9.795506259278643,0.0766144543886184
1303,43.47676666666667,0.3511740556957114,9.763014372034881,0.10023650354788628
1304,43.510133333333336,0.3550229365981211,9.921060927955597,-0.06963346467352528
1305,43.5435,0.3082986608891526,9.877739559538641,0.13628141551788497
1306,43.57686666666667,0.3543418645858764,9.883264541625977,0.4655344647127192
1307,43.61023333333333,0.33537254349613854,9.877727340425821,0.019706523873282367
1308,43.6436,0.46734821468212834,9.895714051003047,0.32944206357752126
1309,43.676966666666665,0.4240473571978967,9.862697259300639,0.18367015576231405
1310,43.71033333333333,0.22591411522827953,9.827031486953015,0.09503092564279209
1311,43.743700000000004,0.36587282336964966,9.922759369751963,0.26723267337367346
1312,43.77706666666667,0.33880619662831646,9.887095760509112,0.13343800287656193
1313,43.810433333333336,0.3746794540030596,9.805960721966146,0.15529723286555633
1314,43.8438,0.47525146806894636,9.911516416840296,0.26815704115445366
1315,43.87716666666667,0.4554298045494984,9.93952885533511,-0.14311809445051094
1316,43.91053333333333,0.46827035194960503,9.885085354827567,0.43308431322884117
1317,43.9439,0.30649452021480245,9.894572563731998,0.21934587161192637
1318,43.977266666666665,0.3788631022959031,9.868651098191537,0.09132169903250448
1319,44.01063333333333,0.45423806165449176,9.943730418463652,0.42901873978512967
1320,44.044000000000004,0.35434243693135026,9.921571922349012,-0.13407374085388732
1321,44.07736666666667,0.413487076779082,9.944190301286504,0.13049002564263246
1322,44.110733333333336,0.48625766736258746,9.959289972666259,-0.020135195955935395
1323,44.1441,0.3781306341538459,9.865758159768259,0.22493998727406217
1324,44.17746666666667,0.4309563040733337,9.867277469385728,0.30416015054957707
1325,44.21083333333333,0.3972468505899963,9.836913141362915,0.017239749348851308
1326,44.2442,0.545168449898437,9.835522462708418,0.2851046088326328
1327,44.277566666666665,0.5399511241351997,9.89047059932753,0.22850240352742796
1328,44.31093333333333,0.43149548264373216,9.883387082106157,-0.017830175143259852
1329,44.344300000000004,0.4557468334858114,9.796372049437872,0.1729713523561975
1330,44.37766666666667,0.46063361404220016,9.849686570014402,0.22854659903439078
1331,44.411033333333336,0.4602586548694882,9.797073364257812,0.20193579701201553
1332,44.4444,0.5030045801513364,9.81386980091321,0.3122092846761193
1333,44.47776666666667,0.512951989480689,9.83845886440096,0.031033330781854815
1334,44.51113333333333,0.5823599587330722,9.816683279711457,0.6361701767285641
1335,44.5445,0.4225288209432324,9.87905080333914,0.0670376494526863
1336,44.577866666666665,0.48392021881748415,9.80157027105241,0.2008909467996013
1337,44.61123333333333,0.4299353597909478,9.869750125429228,0.19452588575196167
1338,44.644600000000004,0.47147423559694257,9.83560162517082,-0.005818596626590008
1339,44.67796666666667,0.5214339888741953,9.812259177720664,0.07148339437182719
1340,44.711333333333336,0.5244439606258096,9.79889771199518,-0.03351727986020122
1341,44.7447,0.4164436924389754,9.859175155087346,0.17087080809249616
1342,44.77806666666667,0.4247850766303468,9.811899497940756,0.34817063714288954
1343,44.81143333333333,0.37737412295567974,9.90241813659668,0.08518889453286216
1344,44.8448,0.4855105881538875,9.837230181474654,0.2514394873110756
1345,44.878166666666665,0.44155031268937145,9.951899520919099,0.10795948896432266
1346,44.91153333333333,0.40398139975850794,9.819418807326025,0.12625400471073134
1347,44.944900000000004,0.45547312027717346,9.921341814778321,0.3153073101842979
1348,44.97826666666667,0.40113808897906145,9.928807660382551,0.17167334092532632
1349,45.011633333333336,0.44415756171934745,9.91953031056615,0.300161650465664
1350,45.045,0.5050876407920056,9.911994934082031,0.37491263436472655
1351,45.07836666666667,0.44557245408537416,9.927112944615908,-0.0861912593245506
1352,45.11173333333333,0.4412562273914884,9.892457734083479,0.363446843825476
1353,45.1451,0.34388105805546176,9.890262905382642,-0.08659649387998825
1354,45.178466666666665,0.3974964876606273,9.873546133304867,0.10089870070513807
1355,45.21183333333333,0.40448250530250907,9.922066625755539,0.32335481181749287
1356,45.245200000000004,0.3401136487554534,9.906112189471754,-0.13024366917391297
1357,45.27856666666667,0.4950302642901732,9.880800609547629,0.3111997245254929
1358,45.311933333333336,0.4091024871254745,9.815539299339449,-0.00593673716814308
1359,45.3453,0.41488794110791577,9.768874737000056,0.20387712285188275
1360,45.37866666666667,0.47801258038066247,9.792934591583036,0.2356376581569321
1361,45.41203333333333,0.3830722570419311,9.81132057380862,0.045827087928617394
1362,45.4454,0.6313053848953467,9.808182107392799,0.2792614706719432
1363,45.478766666666665,0.4166979482058263,9.854029092682511,0.11527141122648366
1364,45.51213333333333,0.47752072281450975,9.78745413071439,-0.05469429665049919
1365,45.545500000000004,0.5703734767664431,9.837406369161751,0.38749526366448606
1366,45.57886666666667,0.372218318149365,9.826442334371254,0.2030296145225828
1367,45.612233333333336,0.414734491723248,9.80591721493814,0.1620485263896681
1368,45.6456,0.3380613706117342,9.826687796113195,0.45747662577009035
1369,45.67896666666667,0.41273587178521687,9.916930596380936,0.029393885066601566
1370,45.71233333333333,0.4400767799533452,9.953494197620074,0.4815754753102615
1371,45.7457,0.3130466342160553,9.876982149908425,0.19915932029173872
1372,45.779066666666665,0.38196658147560425,9.825017878967712,0.3196169426745872
1373,45.81243333333333,0.3872693125711506,9.874290605664944,0.3160346150398254
1374,45.845800000000004,0.318907374372576,9.863392757939561,-0.16233071338235056
1375,45.87916666666667,0.4560596866116471,9.892115931919788,0.256302268685597
1376,45.912533333333336,0.2849327386630851,9.856631914736433,0.015322698729651054
1377,45.9459,0.329000019422789,9.850592896305843,0.11175359921896205
1378,45.97926666666667,0.25405734527438856,9.886149125910702,0.2887711981989119
1379,46.01263333333333,0.3024967901230749,9.85037247828097,0.15869358562218044
1380,46.046,0.3571786574600595,9.864110946655272,0.3312850567743466
1381,46.079366666666665,0.26769695144466293,9.904174724186172,0.23244926615667455
1382,46.11273333333333,0.3470901241087521,9.894255935870282,0.181959331035614
1383,46.146100000000004,0.22285581562334617,9.837934294203212,0.5268664381125685
1384,46.17946666666667,0.20997492399162832,9.885512328046905,0.1119332386080666
1385,46.212833333333336,0.2211873259276379,9.924457074320461,0.14015157320022734
1386,46.2462,0.27614241731743683,9.885444126914333,0.25084581740594886
1387,46.27956666666667,0.279162727532104,9.891032124676112,-0.20239143313936891
1388,46.31293333333333,0.33025056812680514,9.998823452003547,0.13692319554391685
1389,46.3463,0.2968810200691223,9.912569811908487,0.006399411015863665
1390,46.379666666666665,0.2966030719648957,9.926985479530446,0.00970982905887896
1391,46.41303333333333,0.22350630579596428,9.899071563312571,0.14710550312051646
1392,46.446400000000004,0.23750480358239504,9.957325110244186,-0.07512475438620488
1393,46.47976666666667,0.3160346150398254,9.834275139624514,0.41158160609014344
1394,46.513133333333336,0.29215674225979626,9.838232574520163,-0.04549872644380684
1395,46.5465,0.2595311162491451,9.806266762513042,-0.019538186188266304
1396,46.57986666666667,0.31440565733003734,9.869174260963828,0.21881403143961456
1397,46.61323333333333,0.27208793271262055,9.810409799565571,0.14827528933688292
1398,46.6466,0.4654343556255613,9.731129828942324,0.33245311955447165
1399,46.679966666666665,0.42988503109806736,9.806650161743164,0.23470154663132148
1400,46.71333333333333,0.41658991209650637,9.779516450945152,0.025535642917266725
1401,46.746700000000004,0.44919833616940663,9.804917119419184,0.3413465959102291
1402,46.78006666666667,0.4432830791577393,9.855909128914304,0.1315969812117958
1403,46.813433333333336,0.4100171064895599,9.786893703129797,0.15448065743168646
1404,46.8468,0.4058356390434357,9.83832731153965,0.43522906531630484
1405,46.88016666666667,0.35937647222582997,9.782954385714518,0.2423645040015545
1406,46.91353333333333,0.4405331015586853,9.865023030496832,0.29897885076542585
1407,46.9469,0.3437335784244781,9.90646996323548,0.050425687839115794
1408,46.980266666666665,0.42444832306405544,9.872017890224559,0.3533577438265366
1409,47.01363333333333,0.4219953404310604,9.904481356671461,0.15837134646030548
1410,47.047000000000004,0.4589503162949322,9.935568717618777,0.012524157739245567
1411,47.08036666666667,0.47708406222476774,9.841809311176332,0.2741484916210701
1412,47.113733333333336,0.39616190583473343,9.86634559099693,-0.046604100655598224
1413,47.1471,0.5650315880775452,9.873687744140623,0.07653793842408568
1414,47.18046666666667,0.4514360368974501,9.909932266346619,0.19212572743707973
1415,47.21383333333333,0.34913966569469707,9.836208116599492,0.1699590275908188
1416,47.2472,0.5118600041133236,9.796230565455025,0.3538803013717495
1417,47.280566666666665,0.403138857410984,9.917605003260665,0.20510483055946233
1418,47.31393333333333,0.42044262189653087,9.887818723103296,0.24541862826530172
1419,47.347300000000004,0.4624868670317352,9.857259727021486,0.5504136699487224
1420,47.38066666666667,0.43261221194093025,9.86434827312498,0.2526621008036467
1421,47.414033333333336,0.40703554449344803,9.828753732182527,0.3393135075701841
1422,47.4474,0.3197234688509798,9.907171064977359,0.3984661058234746
1423,47.48076666666667,0.4452077982659904,9.940497898908582,0.08575666625353473
1424,47.514133333333334,0.49143866774381206,9.834401474365993,0.35578773485608334
1425,47.5475,0.304542288662003,9.979032954868813,-0.12354126298172771
1426,47.580866666666665,0.43374636347245166,9.878960909458442,0.22918079538002983
1427,47.61423333333333,0.45746282080020295,9.921561133292537,0.2416440604540359
1428,47.647600000000004,0.3180984021954097,9.918331157716331,-0.018560854570762772
1429,47.68096666666667,0.36608875058865425,9.91231334254366,0.3392099981216779
1430,47.714333333333336,0.34841369665201627,9.923396050600447,0.023259563916693565
1431,47.7477,0.3377663420451363,9.934794995563761,-0.019486424202718566
1432,47.78106666666667,0.4254405750389926,9.95752844667477,0.205813898132297
1433,47.814433333333334,0.3012137604103088,9.90372915030185,0.0679841387413691
1434,47.8478,0.4442896267494921,9.84775682195995,0.315442220516525
1435,47.881166666666665,0.46841262354417007,9.92827569865026,0.1934527606151348
1436,47.91453333333333,0.449927487379891,9.90241813659668,0.0383072271943092
1437,47.947900000000004,0.6035232353908727,9.885548219211218,0.29135624390398046
1438,47.98126666666667,0.4992218611690922,9.88689899787352,0.019104291743012564
1439,48.014633333333336,0.4086219722047908,9.808092794518672,0.17156543842733682
1440,48.048,0.38854500451685775,9.83948497090742,0.24215645335783517
1441,48.08136666666667,0.4098372034848577,9.802008191101152,-0.15544498635658577
1442,48.114733333333334,0.5438771668230078,9.86815425416478,0.3760902929198579
1443,48.1481,0.42992502322212334,9.877923597884799,0.04261688762706575
1444,48.181466666666665,0.4422081540067462,9.817064474649674,0.2670703160651492
1445,48.21483333333333,0.5410895821747984,9.911196878163159,0.14604622303215722
1446,48.248200000000004,0.4824581772615522,9.870921307574474,-0.019152820288595357
1447,48.28156666666667,0.504599899318135,9.796409082765845,0.3992550319941057
1448,48.314933333333336,0.5281010854264014,9.840292197376236,0.12307972549025802
1449,48.3483,0.48948473110444435,9.811033138533746,0.12331822941752746
1450,48.38166666666667,0.5388555705568935,9.8987146990684,0.2087761359483843
1451,48.415033333333334,0.45911718115123423,9.82377448944369,0.14774651807163294
1452,48.4484,0.4696891595937507,9.803103208080483,0.3658339820053497
1453,48.481766666666665,0.4448797367214662,9.883264541625977,0.23436262162578708
1454,48.51513333333333,0.39547658820820836,9.842129847805968,0.3344539408132525
1455,48.548500000000004,0.5147539728780457,9.826724557554694,0.49873386449769114
1456,48.58186666666667,0.44317816441784574,9.864931779634343,0.16891664182762733
1457,48.615233333333336,0.4865231203878371,9.897156230332593,0.3875722159484535
1458,48.6486,0.42933565867018153,9.859101480453734,0.030351454403982903
1459,48.68196666666667,0.4338291756569603,9.858365229316325,0.2095712143950833
1460,48.715333333333334,0.5548160252780586,9.90241813659668,0.36008606621083245
1461,48.7487,0.39104013145304267,9.884260524765079,-0.3502047824572414
1462,48.782066666666665,0.5082337768070009,9.843220344844694,0.08120899258397801
1463,48.81543333333333,0.39169160573757456,9.905929558313375,0.03232251700291608
1464,48.848800000000004,0.36349358822856115,9.879859354401075,0.012981997334947419
1465,48.88216666666667,0.3513935791794262,9.74071563757079,0.2014840211129361
1466,48.915533333333336,0.3910212339765475,9.894884993978149,-0.09145510752028972
1467,48.9489,0.3945644078162364,9.898587309571223,-0.029688623786245677
1468,48.98226666666667,0.3497876860406697,9.89948113415592,0.25244524720781625
1469,49.015633333333334,0.2834856460611434,9.86574285933147,0.14309736378080284
1470,49.049,0.4659603231216003,9.910013337962495,0.31273144029287386
1471,49.082366666666665,0.37897206045075105,9.944237178373466,0.322346523340244
1472,49.11573333333333,0.3668824972619251,9.915644041033442,0.05905415988396634
1473,49.149100000000004,0.4377666765788474,9.876454186119018,0.44411663873207063
1474,49.18246666666667,0.2735527251638483,9.870691958989504,-0.05127333214411395
1475,49.215833333333336,0.4073436235002812,9.89383171259177,0.13627559132769565
1476,49.2492,0.36498247771415987,9.778274374133584,0.34072156113593993
1477,49.28256666666667,0.19361043181176324,9.810823783320712,0.06324883870438175
1478,49.315933333333334,0.3346406734355252,9.790871351225988,0.28447697470524586
1479,49.3493,0.33465201343002715,9.89016021136895,-0.16855367897415413
1480,49.382666666666665,0.32720723648989797,9.805167922915384,0.24169933911112862
1481,49.41603333333333,0.30653768917118296,9.905424012333237,0.16039895349616193
1482,49.449400000000004,0.28612590423551115,9.910374222114314,-0.03315013794932807
1483,49.48276666666667,0.34336513781539046,9.781062577722645,0.2595565120240602
1484,49.516133333333336,0.3547184799950303,9.889236592727995,0.08063619481304499
1485,49.5495,0.29187449042335845,9.875864074093528,0.3480295356138526
1486,49.58286666666667,0.3570552075828026,9.863700450251041,0.05951332359347089
1487,49.616233333333334,0.3479809647316092,9.867326856685597,0.04620514396447054
1488,49.6496,0.32944074492023784,9.894117779858489,0.2385668733338821
1489,49.682966666666665,0.3537031176314868,10.010930396889105,0.3127927927638669
1490,49.71633333333333,0.23403221166785312,9.911795978417766,0.035908985874634675
1491,49.749700000000004,0.39947256918585317,9.959639503246056,0.5558139762079906
1492,49.78306666666667,0.2488547396831895,9.90270260308443,0.008865640517710605
1493,49.816433333333336,0.3065873149033652,9.883394034265903,0.37539713522782675
1494,49.8498,0.28184198263240906,9.877802325074793,0.26020812190206294
1495,49.88316666666667,0.24694467547401944,9.859550477247536,0.010373152759243998
1496,49.916533333333334,0.3373432816357434,9.90728542451486,0.3381421590606588
1497,49.9499,0.34518640659296285,9.790024774673416,-0.1649899206468386
1498,49.983266666666665,0.4316459305098827,9.82965962430137,0.31713194493271196
1499,50.01663333333333,0.31830625775868215,9.786231645131796,0.07109063035070765
1500,50.050000000000004,0.30113775733687437,9.894969552036077,0.15322923178522924
1501,50.08336666666667,0.3010792293606357,9.80220450539905,0.3933629929522261
1502,50.116733333333336,0.3099697547714878,9.836896771222207,0.259014415220804
1503,50.1501,0.3081816805107398,9.825803756713867,0.597132932268527
1504,50.18346666666667,0.44087944895695313,9.886829292691193,0.2571655126856892
1505,50.216833333333334,0.28822526796771164,9.865891418606656,0.10117114912734845
1506,50.2502,0.29624237948925264,9.915754581375868,0.4957227080536072
1507,50.283566666666665,0.4103682718474786,9.950075106082528,0.012517954286653726
1508,50.31693333333333,0.27062445190690837,9.90134053557612,0.205498782831358
1509,50.350300000000004,0.33603352249531515,9.874194913434447,0.46419182614400145
1510,50.38366666666667,0.309403993043984,9.90241813659668,-0.12499183582050138
1511,50.417033333333336,0.45176905369134535,9.925210273281692,0.12738007035544394
1512,50.4504,0.4171524751632723,9.918467454509912,0.05680092560056702
1513,50.48376666666667,0.27333665623998477,9.873687744140623,0.014574042140637011
1514,50.517133333333334,0.403162094740751,9.952174546961603,0.1541651209746751
1515,50.5505,0.31060819981751653,9.877199602692842,-0.07022825025752549
1516,50.583866666666665,0.4101081491247394,9.840044960995373,0.15637000752735655
1517,50.61723333333333,0.48646746923806705,9.860325971525711,0.08871273158384319
1518,50.650600000000004,0.3549582148415939,9.879296687843286,0.09186953294201616
1519,50.68396666666667,0.45966011212507824,9.844930737477938,0.592591013845498
1520,50.717333333333336,0.4976188363566914,9.878757480431984,0.20167845001282775
1521,50.7507,0.4574521175800755,9.82848528387794,0.33557115566173806
1522,50.78406666666667,0.533535639560005,9.876501607573795,0.35789242139327104
1523,50.817433333333334,0.47792642052436296,9.80383236990468,0.1037264872866426
1524,50.8508,0.528567155590968,9.799556503381053,0.5138105831719222
1525,50.884166666666665,0.44155941412846234,9.826373790437092,0.21513624283555693
1526,50.91753333333333,0.35404301158361595,9.844914660574718,0.0755471681621156
1527,50.950900000000004,0.4494839087531879,9.892620391085824,0.48591306850389226
1528,50.98426666666667,0.4001628605666056,9.894904348285591,0.09502982165191301
1529,51.017633333333336,0.4526173811903518,9.874439979141552,0.2242784783135436
1530,51.051,0.45826834255310406,9.975839923435755,0.23339277272574827
1531,51.08436666666667,0.38476356959327396,9.865021652541671,0.18906421024092854
1532,51.117733333333334,0.47072234262853346,9.940360622118952,0.1938188499816672
1533,51.1511,0.3843488836676633,9.96958338153753,-0.14901604067395455
1534,51.184466666666665,0.49978613986040027,9.913787131764543,0.43122617165689453
1535,51.21783333333333,0.5430050980365567,9.865643359924528,0.03875457150382944
1536,51.251200000000004,0.46160242515294175,9.927317980637525,-0.015617261609788914
1537,51.28456666666667,0.4928422413121401,9.896436724150849,0.24595472114581346
1538,51.317933333333336,0.45914077822817084,9.917101793611671,0.18168636436363694
1539,51.3513,0.36638261627619756,9.865958910392088,0.26034807658765524
1540,51.38466666666667,0.5005724842422998,9.914081902127498,0.19399398142253013
1541,51.418033333333334,0.5085638119290442,9.893172351623276,-0.0861912593245506
1542,51.4514,0.4747542422623353,9.902801203381529,0.37528309925019
1543,51.484766666666665,0.4331318718158004,9.957159463946395,0.040152153212264556
1544,51.51813333333333,0.4294957433780069,9.849471895509927,0.10401717627068224
